hh,mm,ss,sss,acc_x,acc_y,acc_z,gyro_x,gyro_y,gyro_z,temperature_c,ppg_red,ppg_ir,ppg_green
0,0,0,0,0.0306396484375,-0.02606201171875,-0.01373291015625,-95.74127197265625,5.16510009765625,-84.1217041015625,38.09375,1123,727,186
0,0,0,10,0.029541015625,-0.015380859375,-0.021240234375,-94.00177001953125,3.56292724609375,-84.6710205078125,38.09375,1114,724,182
0,0,0,20,0.029541015625,-0.015380859375,-0.021240234375,-94.00177001953125,3.56292724609375,-84.6710205078125,38.09375,1116,725,188
0,0,0,30,0.0274658203125,-0.00872802734375,-0.0196533203125,-94.21539306640625,5.0811767578125,-81.15386962890625,41.09375,1111,715,197
0,0,0,40,0.0274658203125,-0.00872802734375,-0.0196533203125,-94.21539306640625,5.0811767578125,-81.15386962890625,41.09375,1125,718,179
0,0,0,50,0.02301025390625,-0.00115966796875,-0.0233154296875,-94.9554443359375,4.1961669921875,-86.32659912109375,41.09375,1129,716,185
0,0,0,60,0.02301025390625,-0.00115966796875,-0.0233154296875,-94.9554443359375,4.1961669921875,-86.32659912109375,41.09375,1116,708,174
0,0,0,70,0.02728271484375,-0.0076904296875,-0.024169921875,-91.8731689453125,1.41143798828125,-83.0841064453125,38.09375,1132,709,180
0,0,0,80,0.02728271484375,-0.0076904296875,-0.024169921875,-91.8731689453125,1.41143798828125,-83.0841064453125,38.09375,1124,716,198
0,0,0,90,0.016845703125,-0.01153564453125,-0.0150146484375,-93.04046630859375,2.86865234375,-83.51898193359375,38.09375,1109,714,202
0,0,0,100,0.016845703125,-0.01153564453125,-0.0150146484375,-93.04046630859375,2.86865234375,-83.51898193359375,38.09375,1108,708,186
0,0,0,110,0.01947021484375,-0.018310546875,-0.00787353515625,-93.62030029296875,3.59344482421875,-84.3658447265625,38.09375,1109,705,191
0,0,0,120,0.01947021484375,-0.018310546875,-0.00787353515625,-93.62030029296875,3.59344482421875,-84.3658447265625,42.09375,1123,706,192
0,0,0,130,0.0234375,-0.016357421875,-0.00701904296875,-96.7254638671875,6.3934326171875,-82.52716064453125,42.09375,1121,712,177
0,0,0,140,0.02398681640625,-0.00677490234375,-0.01947021484375,-95.32928466796875,5.10406494140625,-85.174560546875,42.09375,1124,719,202
0,0,0,150,0.02398681640625,-0.00677490234375,-0.01947021484375,-95.32928466796875,5.10406494140625,-85.174560546875,42.09375,1124,704,188
0,0,0,160,0.02447509765625,-0.00439453125,-0.02520751953125,-92.3919677734375,1.64031982421875,-83.5723876953125,40.09375,1123,720,182
0,0,0,170,0.02447509765625,-0.00439453125,-0.02520751953125,-92.3919677734375,1.64031982421875,-83.5723876953125,40.09375,1113,722,195
0,0,0,180,0.02001953125,-0.003173828125,-0.0177001953125,-90.29388427734375,0.58746337890625,-84.503173828125,40.09375,1117,720,188
0,0,0,190,0.02001953125,-0.003173828125,-0.0177001953125,-90.29388427734375,0.58746337890625,-84.503173828125,40.09375,1123,742,180
0,0,0,200,0.0224609375,-0.014404296875,-0.0015869140625,-93.4906005859375,3.631591796875,-82.28302001953125,40.09375,1131,706,187
0,0,0,210,0.0224609375,-0.014404296875,-0.0015869140625,-93.4906005859375,3.631591796875,-82.28302001953125,37.09375,1115,725,190
0,0,0,220,0.01776123046875,-0.0108642578125,-0.00146484375,-99.08294677734375,7.87353515625,-82.8399658203125,37.09375,1123,727,185
0,0,0,230,0.01776123046875,-0.0108642578125,-0.00146484375,-99.08294677734375,7.87353515625,-82.8399658203125,37.09375,1122,725,194
0,0,0,240,0.01849365234375,-0.0013427734375,-0.0181884765625,-93.69659423828125,4.23431396484375,-83.4503173828125,37.09375,1129,722,192
0,0,0,250,0.01849365234375,-0.0013427734375,-0.0181884765625,-93.69659423828125,4.23431396484375,-83.4503173828125,37.09375,1127,719,192
0,0,0,260,0.0181884765625,0.001220703125,-0.01812744140625,-92.64373779296875,1.861572265625,-84.40399169921875,42.09375,1106,715,189
0,0,0,270,0.0152587890625,-0.0062255859375,-0.01470947265625,-92.64373779296875,1.861572265625,-84.40399169921875,42.09375,1109,710,178
0,0,0,280,0.0152587890625,-0.0062255859375,-0.01470947265625,-92.58270263671875,1.7547607421875,-85.38055419921875,42.09375,1134,713,180
0,0,0,290,0.0166015625,-0.0184326171875,-0.00799560546875,-92.75054931640625,2.74658203125,-82.8857421875,42.09375,1138,726,202
0,0,0,300,0.0166015625,-0.0184326171875,-0.00799560546875,-92.75054931640625,2.74658203125,-82.8857421875,35.09375,1137,721,180
0,0,0,310,0.014404296875,-0.01885986328125,-0.0028076171875,-97.00775146484375,6.3629150390625,-81.84051513671875,35.09375,1165,723,194
0,0,0,320,0.014404296875,-0.01885986328125,-0.0028076171875,-97.00775146484375,6.3629150390625,-81.84051513671875,35.09375,1181,729,189
0,0,0,330,0.01416015625,-0.00592041015625,-0.01312255859375,-95.245361328125,4.93621826171875,-84.25140380859375,35.09375,1199,714,189
0,0,0,340,0.01416015625,-0.00592041015625,-0.01312255859375,-95.245361328125,4.93621826171875,-84.25140380859375,35.09375,1188,723,181
0,0,0,350,0.01605224609375,-0.0018310546875,-0.01568603515625,-91.9189453125,2.6397705078125,-82.58819580078125,39.09375,1178,722,193
0,0,0,360,0.01605224609375,-0.0018310546875,-0.01568603515625,-91.9189453125,2.6397705078125,-82.58819580078125,39.09375,1190,707,177
0,0,0,370,0.0130615234375,-0.0064697265625,-0.00872802734375,-95.00885009765625,4.119873046875,-84.9761962890625,39.09375,1190,707,182
0,0,0,380,0.0130615234375,-0.0064697265625,-0.00872802734375,-95.00885009765625,4.119873046875,-84.9761962890625,39.09375,1189,706,195
0,0,0,390,0.01715087890625,-0.01263427734375,-0.0113525390625,-92.41485595703125,2.66265869140625,-84.77020263671875,39.09375,1158,725,180
0,0,0,400,0.01715087890625,-0.01263427734375,-0.0113525390625,-92.41485595703125,2.66265869140625,-84.77020263671875,39.09375,1149,706,202
0,0,0,410,0.0164794921875,-0.01654052734375,-0.00531005859375,-93.58978271484375,4.08172607421875,-81.3446044921875,39.09375,1126,713,172
0,0,0,420,0.011474609375,-0.0098876953125,-0.005126953125,-99.44915771484375,7.659912109375,-83.76312255859375,39.09375,1129,692,183
0,0,0,430,0.011474609375,-0.0098876953125,-0.005126953125,-98.6480712890625,7.659912109375,-83.76312255859375,39.09375,1123,717,183
0,0,0,440,0.020751953125,-0.01312255859375,-0.01690673828125,-94.12384033203125,4.33349609375,-82.61871337890625,42.09375,1135,710,188
0,0,0,450,0.020751953125,-0.01312255859375,-0.01690673828125,-94.12384033203125,4.33349609375,-82.61871337890625,42.09375,1110,707,189
0,0,0,460,0.02154541015625,-0.00634765625,-0.0177001953125,-92.81158447265625,1.495361328125,-85.02960205078125,42.09375,1124,725,200
0,0,0,470,0.02154541015625,-0.00634765625,-0.0177001953125,-92.81158447265625,1.495361328125,-85.02960205078125,42.09375,1104,717,179
0,0,0,480,0.01806640625,-0.010009765625,-0.01043701171875,-90.12603759765625,0.5645751953125,-83.47320556640625,40.09375,1075,709,198
0,0,0,490,0.01806640625,-0.010009765625,-0.01043701171875,-90.12603759765625,0.5645751953125,-83.47320556640625,40.09375,1082,732,181
0,0,0,500,0.01068115234375,-0.0106201171875,-6.103515625e-05,-96.343994140625,6.18743896484375,-83.19854736328125,40.09375,1070,727,188
0,0,0,510,0.01068115234375,-0.0106201171875,-6.103515625e-05,-96.343994140625,6.18743896484375,-83.19854736328125,40.09375,1071,712,183
0,0,0,520,0.01226806640625,-0.007080078125,-0.0089111328125,-98.1903076171875,7.904052734375,-82.5042724609375,40.09375,1066,751,189
0,0,0,530,0.01226806640625,-0.007080078125,-0.0089111328125,-98.1903076171875,7.904052734375,-82.5042724609375,39.09375,1046,724,177
0,0,0,540,0.01690673828125,-0.00244140625,-0.022705078125,-94.0093994140625,3.92913818359375,-84.29718017578125,39.09375,1036,763,195
0,0,0,550,0.01922607421875,-0.00848388671875,-0.02044677734375,-94.0093994140625,3.92913818359375,-84.29718017578125,39.09375,1055,774,189
0,0,0,560,0.01922607421875,-0.00848388671875,-0.02044677734375,-91.00341796875,0.7781982421875,-84.55657958984375,39.09375,1056,802,179
0,0,0,570,0.01788330078125,-0.0155029296875,-0.00909423828125,-92.58270263671875,2.58636474609375,-83.984375,41.09375,1074,789,192
0,0,0,580,0.01788330078125,-0.0155029296875,-0.00909423828125,-92.58270263671875,2.58636474609375,-83.984375,41.09375,1080,806,193
0,0,0,590,0.017333984375,-0.01824951171875,-0.0048828125,-96.13800048828125,5.66864013671875,-83.6944580078125,41.09375,1096,767,198
0,0,0,600,0.017333984375,-0.01824951171875,-0.0048828125,-96.13800048828125,5.66864013671875,-83.6944580078125,41.09375,1110,783,176
0,0,0,610,0.0194091796875,-0.01776123046875,-0.0115966796875,-96.3287353515625,6.3018798828125,-82.0770263671875,41.09375,1116,784,190
0,0,0,620,0.0194091796875,-0.01776123046875,-0.0115966796875,-96.3287353515625,6.3018798828125,-82.0770263671875,39.09375,1114,771,185
0,0,0,630,0.0201416015625,-0.0067138671875,-0.01910400390625,-94.82574462890625,4.06646728515625,-83.892822265625,39.09375,1109,757,189
0,0,0,640,0.0201416015625,-0.0067138671875,-0.01910400390625,-94.82574462890625,4.06646728515625,-83.892822265625,39.09375,1117,733,198
0,0,0,650,0.0208740234375,-0.001953125,-0.01922607421875,-92.3309326171875,1.85394287109375,-83.51898193359375,39.09375,1112,714,191
0,0,0,660,0.0208740234375,-0.001953125,-0.01922607421875,-92.3309326171875,1.85394287109375,-83.51898193359375,39.09375,1127,686,198
0,0,0,670,0.016357421875,-0.00726318359375,-0.0135498046875,-92.14019775390625,1.678466796875,-85.76202392578125,45.09375,1097,702,186
0,0,0,680,0.016357421875,-0.00726318359375,-0.0135498046875,-92.14019775390625,1.678466796875,-85.76202392578125,45.09375,1117,725,189
0,0,0,690,0.01812744140625,-0.01806640625,-0.00823974609375,-91.6900634765625,1.83868408203125,-85.2203369140625,45.09375,1105,728,188
0,0,0,700,0.01971435546875,-0.02545166015625,-0.00042724609375,-91.6900634765625,3.79180908203125,-83.9691162109375,45.09375,1118,689,197
0,0,0,710,0.01971435546875,-0.02545166015625,-0.00042724609375,-92.21649169921875,2.6397705078125,-83.9691162109375,42.09375,1104,672,187
0,0,0,720,0.037841796875,-0.01507568359375,-0.0032958984375,-104.888916015625,11.3983154296875,-89.97344970703125,42.09375,1116,678,196
0,0,0,730,0.037841796875,-0.01507568359375,-0.0032958984375,-104.888916015625,11.3983154296875,-89.97344970703125,42.09375,1112,663,183
0,0,0,740,0.076416015625,-0.00518798828125,-0.0523681640625,-98.358154296875,9.033203125,-83.25958251953125,42.09375,1120,658,187
0,0,0,750,0.076416015625,-0.00518798828125,-0.0523681640625,-98.358154296875,9.033203125,-83.25958251953125,42.09375,1112,669,186
0,0,0,760,0.072265625,0.01751708984375,-0.08001708984375,-100.6927490234375,6.56890869140625,-87.8143310546875,33.09375,1109,648,210
0,0,0,770,0.072265625,0.01751708984375,-0.08001708984375,-100.6927490234375,6.56890869140625,-87.8143310546875,33.09375,1117,643,196
0,0,0,780,0.098388671875,0.0419921875,-0.1099853515625,-102.42462158203125,3.4027099609375,-88.836669921875,33.09375,1105,625,232
0,0,0,790,0.098388671875,0.0419921875,-0.1099853515625,-102.42462158203125,3.4027099609375,-88.836669921875,33.09375,1122,644,228
0,0,0,800,0.117431640625,0.05450439453125,-0.134521484375,-93.26934814453125,-4.12750244140625,-92.64373779296875,43.09375,1130,671,259
0,0,0,810,0.117431640625,0.05450439453125,-0.134521484375,-93.26934814453125,-4.12750244140625,-92.64373779296875,43.09375,1122,671,275
0,0,0,820,0.1383056640625,0.031982421875,-0.1187744140625,-88.08135986328125,-2.76947021484375,-83.8775634765625,43.09375,1119,699,252
0,0,0,830,0.1383056640625,0.01959228515625,-0.091064453125,-88.08135986328125,-2.76947021484375,-83.8775634765625,43.09375,1112,694,275
0,0,0,840,0.13372802734375,0.01959228515625,-0.091064453125,-96.13037109375,3.9825439453125,-78.63616943359375,43.09375,1131,707,259
0,0,0,850,0.11993408203125,0.04168701171875,-0.09918212890625,-103.4698486328125,5.615234375,-83.2672119140625,41.09375,1115,709,241
0,0,0,860,0.11993408203125,0.04168701171875,-0.09918212890625,-103.4698486328125,5.615234375,-83.2672119140625,41.09375,1108,712,231
0,0,0,870,0.12969970703125,0.058349609375,-0.1278076171875,-99.3804931640625,0.640869140625,-89.6148681640625,41.09375,1124,713,213
0,0,0,880,0.12969970703125,0.058349609375,-0.1278076171875,-99.3804931640625,0.640869140625,-89.6148681640625,41.09375,1107,720,213
0,0,0,890,0.14471435546875,0.039306640625,-0.133056640625,-98.388671875,-0.00762939453125,-86.42578125,37.09375,1131,709,185
0,0,0,900,0.14471435546875,0.039306640625,-0.133056640625,-98.388671875,-0.00762939453125,-86.42578125,37.09375,1114,717,199
0,0,0,910,0.15093994140625,0.03216552734375,-0.1419677734375,-91.31622314453125,-4.5623779296875,-84.78546142578125,37.09375,1106,713,182
0,0,0,920,0.15093994140625,0.03216552734375,-0.1419677734375,-91.31622314453125,-4.5623779296875,-84.78546142578125,37.09375,1119,712,194
0,0,0,930,0.13787841796875,0.0147705078125,-0.1202392578125,-85.86883544921875,-8.60595703125,-86.0443115234375,37.09375,1104,719,202
0,0,0,940,0.13787841796875,0.0147705078125,-0.1202392578125,-85.86883544921875,-8.60595703125,-86.0443115234375,40.09375,1114,708,199
0,0,0,950,0.114013671875,-0.018310546875,-0.07928466796875,-89.7979736328125,-6.805419921875,-83.221435546875,40.09375,1123,711,169
0,0,0,960,0.114013671875,-0.018310546875,-0.07928466796875,-89.7979736328125,-6.805419921875,-83.221435546875,40.09375,1116,699,167
0,0,0,970,0.07427978515625,-0.0445556640625,-0.05072021484375,-87.33367919921875,-7.54547119140625,-83.465576171875,40.09375,1110,710,149
0,0,0,980,0.04705810546875,-0.05975341796875,-0.02471923828125,-87.33367919921875,-7.54547119140625,-90.14129638671875,40.09375,1127,715,131
0,0,0,990,0.04705810546875,-0.05975341796875,-0.02471923828125,-95.49713134765625,-3.12042236328125,-90.14129638671875,40.09375,1092,697,139
0,0,1,0,0.05780029296875,-0.0579833984375,-0.04156494140625,-99.18212890625,-3.08990478515625,-88.03558349609375,40.09375,1117,705,125
0,0,1,10,0.05780029296875,-0.0579833984375,-0.04156494140625,-99.18212890625,-3.08990478515625,-88.03558349609375,40.09375,1116,703,111
0,0,1,20,0.04339599609375,-0.07196044921875,-0.05120849609375,-97.2442626953125,-7.75146484375,-101.4251708984375,40.09375,1104,709,112
0,0,1,30,0.04339599609375,-0.07196044921875,-0.05120849609375,-97.2442626953125,-7.75146484375,-101.4251708984375,39.09375,1115,714,114
0,0,1,40,0.0989990234375,-0.082275390625,-0.04327392578125,-92.926025390625,-10.6048583984375,-89.25628662109375,39.09375,1107,705,136
0,0,1,50,0.0989990234375,-0.082275390625,-0.04327392578125,-92.926025390625,-10.6048583984375,-89.25628662109375,39.09375,1119,703,156
0,0,1,60,0.07281494140625,-0.1060791015625,-0.005859375,-85.418701171875,-13.9617919921875,-82.28302001953125,39.09375,1117,705,163
0,0,1,70,0.07281494140625,-0.1060791015625,-0.005859375,-85.418701171875,-13.9617919921875,-82.28302001953125,39.09375,1114,710,166
0,0,1,80,0.0074462890625,-0.11444091796875,0.059814453125,-101.715087890625,-10.2081298828125,-105.01861572265625,42.09375,1117,713,167
0,0,1,90,0.0074462890625,-0.11444091796875,0.059814453125,-101.715087890625,-10.2081298828125,-105.01861572265625,42.09375,1123,727,187
0,0,1,100,0.03265380859375,-0.14495849609375,0.08673095703125,-94.635009765625,-13.3056640625,-101.99737548828125,42.09375,1116,715,179
0,0,1,110,0.03265380859375,-0.12933349609375,0.1578369140625,-94.635009765625,-13.3056640625,-101.99737548828125,42.09375,1116,729,197
0,0,1,120,0.0469970703125,-0.13714599609375,0.1578369140625,-121.4752197265625,3.63922119140625,-101.2725830078125,40.09375,1101,717,187
0,0,1,130,0.1455078125,-0.1041259765625,0.06182861328125,-100.70037841796875,-7.97271728515625,-92.00286865234375,40.09375,1125,717,174
0,0,1,140,0.1455078125,-0.1041259765625,0.06182861328125,-100.70037841796875,-7.97271728515625,-92.00286865234375,40.09375,1095,718,179
0,0,1,150,0.15155029296875,-0.0877685546875,0.04595947265625,-90.88134765625,-12.237548828125,-80.87921142578125,40.09375,1104,725,180
0,0,1,160,0.15155029296875,-0.0877685546875,0.04595947265625,-90.88134765625,-12.237548828125,-80.87921142578125,40.09375,1098,708,195
0,0,1,170,0.11517333984375,-0.08648681640625,0.0701904296875,-84.5184326171875,-14.12200927734375,-81.268310546875,39.09375,1100,716,185
0,0,1,180,0.11517333984375,-0.08648681640625,0.0701904296875,-84.5184326171875,-14.12200927734375,-81.268310546875,39.09375,1105,721,201
0,0,1,190,0.07647705078125,-0.1180419921875,0.08929443359375,-79.85687255859375,-14.22119140625,-79.81109619140625,39.09375,1114,705,186
0,0,1,200,0.07647705078125,-0.1180419921875,0.08929443359375,-79.85687255859375,-14.22119140625,-79.81109619140625,39.09375,1103,721,185
0,0,1,210,-0.0010986328125,-0.16339111328125,0.1343994140625,-93.4295654296875,-4.32586669921875,-87.554931640625,45.09375,1109,701,188
0,0,1,220,-0.0010986328125,-0.16339111328125,0.1343994140625,-93.4295654296875,-4.32586669921875,-87.554931640625,45.09375,1097,702,181
0,0,1,230,0.0091552734375,-0.19134521484375,0.10638427734375,-98.77777099609375,-0.3509521484375,-87.27264404296875,45.09375,1102,717,185
0,0,1,240,0.0091552734375,-0.19134521484375,0.10638427734375,-98.77777099609375,-0.3509521484375,-87.27264404296875,45.09375,1100,715,182
0,0,1,250,0.07928466796875,-0.1756591796875,0.03204345703125,-89.75982666015625,-8.06427001953125,-75.3326416015625,45.09375,1115,707,182
0,0,1,260,0.09405517578125,-0.141357421875,0.029052734375,-89.75982666015625,-8.06427001953125,-75.3326416015625,42.09375,1093,703,189
0,0,1,270,0.09405517578125,-0.141357421875,0.029052734375,-71.20513916015625,-16.68548583984375,-57.4188232421875,42.09375,1106,694,197
0,0,1,280,0.0213623046875,-0.091064453125,0.11639404296875,-81.65740966796875,-8.61358642578125,-60.8978271484375,42.09375,1102,698,202
0,0,1,290,0.0213623046875,-0.091064453125,0.11639404296875,-81.65740966796875,-8.61358642578125,-60.8978271484375,42.09375,1096,690,193
0,0,1,300,0.00616455078125,-0.03240966796875,0.1431884765625,-95.66497802734375,0.5035400390625,-71.90704345703125,45.09375,1092,688,195
0,0,1,310,0.00616455078125,-0.03240966796875,0.1431884765625,-95.66497802734375,0.5035400390625,-71.90704345703125,45.09375,1088,699,197
0,0,1,320,0.06011962890625,-0.00213623046875,0.1141357421875,-95.27587890625,4.5166015625,-62.53814697265625,45.09375,1103,687,167
0,0,1,330,0.06011962890625,-0.00213623046875,0.1141357421875,-95.27587890625,4.5166015625,-62.53814697265625,45.09375,1084,702,185
0,0,1,340,0.06219482421875,-0.0009765625,0.0982666015625,-99.54071044921875,7.7362060546875,-57.25860595703125,45.09375,1088,682,188
0,0,1,350,0.06219482421875,-0.0009765625,0.0982666015625,-99.54071044921875,7.7362060546875,-57.25860595703125,36.09375,1084,687,199
0,0,1,360,0.02276611328125,0.0030517578125,0.07855224609375,-103.5919189453125,6.0882568359375,-69.4427490234375,36.09375,1091,688,183
0,0,1,370,0.02276611328125,0.0030517578125,0.07855224609375,-103.5919189453125,6.0882568359375,-69.4427490234375,36.09375,1073,685,178
0,0,1,380,0.052978515625,0.0194091796875,0.0499267578125,-100.09765625,0.84686279296875,-75.775146484375,36.09375,1068,677,176
0,0,1,390,0.052978515625,0.0194091796875,0.0343017578125,-100.09765625,0.84686279296875,-75.775146484375,36.09375,1076,671,167
0,0,1,400,0.11962890625,0.036865234375,0.04412841796875,-101.44805908203125,-1.76239013671875,-79.82635498046875,41.09375,1074,682,183
0,0,1,410,0.2008056640625,0.07452392578125,0.029296875,-103.61480712890625,0.3509521484375,-69.6563720703125,41.09375,1076,657,184
0,0,1,420,0.2008056640625,0.07452392578125,0.029296875,-103.61480712890625,0.3509521484375,-69.6563720703125,41.09375,1064,666,182
0,0,1,430,0.20013427734375,0.12921142578125,0.01959228515625,-95.31402587890625,-3.2501220703125,-55.9234619140625,41.09375,1050,665,164
0,0,1,440,0.20013427734375,0.12921142578125,0.01959228515625,-95.31402587890625,-3.2501220703125,-55.9234619140625,41.09375,1060,661,184
0,0,1,450,0.10125732421875,0.17181396484375,0.04705810546875,-96.38214111328125,-6.683349609375,-74.33319091796875,41.09375,1047,651,176
0,0,1,460,0.10125732421875,0.17181396484375,0.04705810546875,-96.38214111328125,-6.683349609375,-74.33319091796875,41.09375,1070,663,169
0,0,1,470,0.04412841796875,0.09967041015625,0.07470703125,-110.076904296875,-0.518798828125,-86.70806884765625,41.09375,1039,657,187
0,0,1,480,0.04412841796875,0.09967041015625,0.07470703125,-110.076904296875,-0.518798828125,-86.70806884765625,41.09375,1043,654,179
0,0,1,490,0.03143310546875,-0.07098388671875,0.054931640625,-106.83441162109375,-3.082275390625,-95.16143798828125,45.09375,1048,645,182
0,0,1,500,0.03143310546875,-0.07098388671875,0.054931640625,-106.83441162109375,-3.082275390625,-95.16143798828125,45.09375,1047,642,178
0,0,1,510,0.0845947265625,-0.10626220703125,0.03533935546875,-105.87310791015625,-1.7547607421875,-86.37237548828125,45.09375,1041,644,181
0,0,1,520,0.0845947265625,-0.10626220703125,0.03533935546875,-105.87310791015625,-1.7547607421875,-86.37237548828125,45.09375,1030,637,167
0,0,1,530,0.13507080078125,-0.10986328125,0.0299072265625,-99.67041015625,-5.47027587890625,-78.22418212890625,39.09375,1040,623,174
0,0,1,540,0.12628173828125,-0.1041259765625,0.05126953125,-99.67041015625,-5.47027587890625,-78.22418212890625,39.09375,1036,636,178
0,0,1,550,0.12628173828125,-0.1041259765625,0.05126953125,-100.10528564453125,-4.4403076171875,-72.9522705078125,39.09375,1027,637,172
0,0,1,560,0.09368896484375,-0.0858154296875,0.077392578125,-99.81536865234375,-3.11279296875,-74.66888427734375,39.09375,1023,630,174
0,0,1,570,0.09368896484375,-0.0858154296875,0.077392578125,-99.81536865234375,-3.11279296875,-74.66888427734375,39.09375,1023,630,168
0,0,1,580,0.09979248046875,-0.05670166015625,0.105224609375,-105.01861572265625,-0.5950927734375,-81.91680908203125,37.09375,1027,626,186
0,0,1,590,0.09979248046875,-0.05670166015625,0.105224609375,-105.01861572265625,-0.5950927734375,-81.91680908203125,37.09375,1016,628,166
0,0,1,600,0.14642333984375,-0.02813720703125,0.100341796875,-106.658935546875,0.23651123046875,-83.8775634765625,37.09375,1017,632,175
0,0,1,610,0.14642333984375,-0.02813720703125,0.100341796875,-106.658935546875,0.23651123046875,-83.8775634765625,37.09375,1018,627,182
0,0,1,620,0.18951416015625,-0.01519775390625,0.0946044921875,-99.0447998046875,-4.57763671875,-76.3092041015625,41.09375,1020,627,176
0,0,1,630,0.18951416015625,-0.01519775390625,0.0946044921875,-99.0447998046875,-4.57763671875,-76.3092041015625,41.09375,1027,616,171
0,0,1,640,0.16107177734375,-0.01800537109375,0.13818359375,-93.5211181640625,-5.98907470703125,-70.94573974609375,41.09375,1021,641,185
0,0,1,650,0.16107177734375,-0.01800537109375,0.13818359375,-93.5211181640625,-5.98907470703125,-70.94573974609375,41.09375,1020,628,157
0,0,1,660,0.13433837890625,0.016845703125,0.2008056640625,-101.07421875,-3.8909912109375,-91.49932861328125,41.09375,1019,635,182
0,0,1,670,0.13433837890625,0.016845703125,0.2008056640625,-101.07421875,-3.8909912109375,-91.49932861328125,38.09375,1019,627,170
0,0,1,680,0.23663330078125,0.0364990234375,0.20855712890625,-106.842041015625,2.40325927734375,-88.64593505859375,38.09375,1021,623,170
0,0,1,690,0.32769775390625,0.01513671875,0.1937255859375,-97.076416015625,0.26702880859375,-72.1435546875,38.09375,1019,631,163
0,0,1,700,0.32769775390625,0.01513671875,0.1937255859375,-96.2982177734375,0.26702880859375,-72.1435546875,38.09375,1032,632,162
0,0,1,710,0.343505859375,-0.00799560546875,0.23046875,-79.925537109375,-8.48388671875,-62.43133544921875,37.09375,1020,634,171
0,0,1,720,0.343505859375,-0.00799560546875,0.23046875,-79.925537109375,-8.48388671875,-62.43133544921875,37.09375,1026,635,155
0,0,1,730,0.315185546875,0.0106201171875,0.31689453125,-88.1195068359375,-0.20599365234375,-55.80902099609375,37.09375,1043,626,173
0,0,1,740,0.315185546875,0.0106201171875,0.31689453125,-88.1195068359375,-0.20599365234375,-55.80902099609375,37.09375,1039,621,170
0,0,1,750,0.26434326171875,0.0704345703125,0.348388671875,-106.60552978515625,11.54327392578125,-57.41119384765625,37.09375,1030,627,173
0,0,1,760,0.26434326171875,0.0704345703125,0.348388671875,-106.60552978515625,11.54327392578125,-57.41119384765625,36.09375,1041,640,168
0,0,1,770,0.21124267578125,0.155029296875,0.2904052734375,-109.26055908203125,10.62774658203125,-72.57843017578125,36.09375,1036,645,177
0,0,1,780,0.21124267578125,0.155029296875,0.2904052734375,-109.26055908203125,10.62774658203125,-72.57843017578125,36.09375,1046,639,169
0,0,1,790,0.18865966796875,0.12567138671875,0.23388671875,-98.12164306640625,0.55694580078125,-86.73858642578125,36.09375,1022,633,183
0,0,1,800,0.18865966796875,0.12567138671875,0.23388671875,-98.12164306640625,0.55694580078125,-86.73858642578125,36.09375,1028,633,179
0,0,1,810,0.17877197265625,0.06341552734375,0.226806640625,-88.66119384765625,-4.5013427734375,-85.59417724609375,40.09375,1019,636,175
0,0,1,820,0.187744140625,0.0460205078125,0.25311279296875,-88.66119384765625,-4.5013427734375,-85.59417724609375,40.09375,1026,637,171
0,0,1,830,0.187744140625,0.0460205078125,0.25311279296875,-96.7254638671875,1.1444091796875,-86.99798583984375,40.09375,1026,623,171
0,0,1,840,0.2620849609375,0.0216064453125,0.24371337890625,-95.6268310546875,0.43487548828125,-99.1973876953125,40.09375,1029,631,179
0,0,1,850,0.2620849609375,0.0216064453125,0.24371337890625,-95.6268310546875,0.43487548828125,-99.1973876953125,37.09375,1018,627,173
0,0,1,860,0.3687744140625,-0.0001220703125,0.22833251953125,-85.6475830078125,2.4261474609375,-66.45965576171875,37.09375,1018,623,173
0,0,1,870,0.3687744140625,-0.0001220703125,0.22833251953125,-85.6475830078125,2.4261474609375,-66.45965576171875,37.09375,1022,620,172
0,0,1,880,0.28857421875,0.0634765625,0.2427978515625,-98.12164306640625,5.92803955078125,-62.78228759765625,37.09375,1022,615,168
0,0,1,890,0.28857421875,0.0634765625,0.2427978515625,-98.12164306640625,5.92803955078125,-62.78228759765625,37.09375,1014,622,168
0,0,1,900,0.17431640625,0.1009521484375,0.22216796875,-92.315673828125,4.3182373046875,-81.65740966796875,40.09375,1037,634,179
0,0,1,910,0.17431640625,0.1009521484375,0.22216796875,-92.315673828125,4.3182373046875,-81.65740966796875,40.09375,1019,623,178
0,0,1,920,0.15252685546875,0.06158447265625,0.21466064453125,-99.0142822265625,9.40704345703125,-88.623046875,40.09375,1026,618,167
0,0,1,930,0.15252685546875,0.06158447265625,0.21466064453125,-99.0142822265625,9.40704345703125,-88.623046875,40.09375,1023,609,156
0,0,1,940,0.189697265625,0.01800537109375,0.16302490234375,-99.1363525390625,5.47027587890625,-90.1336669921875,40.09375,1012,614,159
0,0,1,950,0.189697265625,0.01800537109375,0.16302490234375,-99.1363525390625,5.47027587890625,-90.1336669921875,40.09375,1013,611,154
0,0,1,960,0.2073974609375,0.01446533203125,0.1104736328125,-83.7249755859375,-9.368896484375,-92.12493896484375,40.09375,1004,613,170
0,0,1,970,0.181396484375,0.02239990234375,0.13397216796875,-83.7249755859375,-19.134521484375,-106.69708251953125,40.09375,1011,622,160
0,0,1,980,0.181396484375,0.02239990234375,0.13397216796875,-79.7882080078125,-18.096923828125,-106.69708251953125,40.09375,1009,618,168
0,0,1,990,0.2421875,-0.05487060546875,0.1697998046875,-81.19964599609375,-19.8211669921875,-109.01641845703125,39.09375,1012,610,171
0,0,2,0,0.2421875,-0.05487060546875,0.1697998046875,-81.19964599609375,-19.8211669921875,-109.01641845703125,39.09375,1002,612,165
0,0,2,10,0.31915283203125,-0.07623291015625,0.17822265625,-85.63995361328125,-16.0675048828125,-107.0556640625,39.09375,996,622,168
0,0,2,20,0.31915283203125,-0.07623291015625,0.17822265625,-85.63995361328125,-16.0675048828125,-107.0556640625,39.09375,1022,634,178
0,0,2,30,0.37542724609375,-0.0833740234375,0.1875,-87.18109130859375,-10.85662841796875,-95.428466796875,37.09375,1021,618,172
0,0,2,40,0.37542724609375,-0.0833740234375,0.1875,-87.18109130859375,-10.85662841796875,-95.428466796875,37.09375,1008,627,174
0,0,2,50,0.403564453125,-0.07537841796875,0.2030029296875,-92.65899658203125,-8.3770751953125,-93.719482421875,37.09375,1025,624,168
0,0,2,60,0.403564453125,-0.07537841796875,0.2030029296875,-92.65899658203125,-8.3770751953125,-93.719482421875,37.09375,1021,628,162
0,0,2,70,0.4263916015625,-0.08941650390625,0.19384765625,-93.07861328125,-5.92803955078125,-79.49066162109375,37.09375,1025,627,168
0,0,2,80,0.4263916015625,-0.08941650390625,0.19384765625,-93.07861328125,-5.92803955078125,-79.49066162109375,37.09375,1018,632,166
0,0,2,90,0.37957763671875,-0.1063232421875,0.18438720703125,-87.2802734375,-9.60540771484375,-77.117919921875,37.09375,1028,618,167
0,0,2,100,0.37957763671875,-0.1097412109375,0.20379638671875,-87.2802734375,-9.60540771484375,-77.117919921875,37.09375,1020,622,175
0,0,2,110,0.34844970703125,-0.1097412109375,0.20379638671875,-90.70587158203125,-8.03375244140625,-86.578369140625,37.09375,1012,623,177
0,0,2,120,0.3875732421875,-0.140869140625,0.20849609375,-94.3756103515625,-4.81414794921875,-75.66070556640625,37.09375,1028,628,166
0,0,2,130,0.3875732421875,-0.140869140625,0.20849609375,-94.3756103515625,-4.81414794921875,-75.66070556640625,43.09375,1023,604,162
0,0,2,140,0.3638916015625,-0.1484375,0.20147705078125,-84.3505859375,-7.049560546875,-61.309814453125,43.09375,1018,608,168
0,0,2,150,0.3638916015625,-0.1484375,0.20147705078125,-84.3505859375,-7.049560546875,-61.309814453125,43.09375,997,620,178
0,0,2,160,0.26165771484375,-0.13397216796875,0.2564697265625,-82.5042724609375,-6.65283203125,-69.7174072265625,43.09375,1030,624,161
0,0,2,170,0.26165771484375,-0.13397216796875,0.2564697265625,-82.5042724609375,-6.65283203125,-69.7174072265625,40.09375,1020,618,158
0,0,2,180,0.220703125,-0.10986328125,0.31591796875,-89.4775390625,2.0751953125,-73.3642578125,40.09375,1023,621,170
0,0,2,190,0.220703125,-0.10986328125,0.31591796875,-89.4775390625,2.0751953125,-73.3642578125,40.09375,1007,611,171
0,0,2,200,0.24029541015625,-0.07867431640625,0.32611083984375,-94.42138671875,7.2479248046875,-75.38604736328125,40.09375,1010,614,161
0,0,2,210,0.24029541015625,-0.07867431640625,0.32611083984375,-94.42138671875,7.2479248046875,-75.38604736328125,40.09375,1019,604,176
0,0,2,220,0.2998046875,-0.009765625,0.30426025390625,-94.573974609375,9.6588134765625,-69.22149658203125,39.09375,1006,610,163
0,0,2,230,0.2998046875,-0.009765625,0.30426025390625,-94.573974609375,9.6588134765625,-69.22149658203125,39.09375,1003,609,157
0,0,2,240,0.2728271484375,0.025634765625,0.28802490234375,-100.9979248046875,12.5274658203125,-73.12774658203125,39.09375,1001,615,169
0,0,2,250,0.21978759765625,-0.0372314453125,0.278564453125,-100.9979248046875,12.5274658203125,-71.17462158203125,39.09375,1002,620,153
0,0,2,260,0.21978759765625,-0.0372314453125,0.278564453125,-103.9886474609375,14.85443115234375,-72.0977783203125,36.09375,1005,610,163
0,0,2,270,0.2110595703125,-0.067626953125,0.25128173828125,-98.24371337890625,11.2762451171875,-67.74139404296875,36.09375,1011,617,162
0,0,2,280,0.2110595703125,-0.067626953125,0.25128173828125,-98.24371337890625,11.2762451171875,-67.74139404296875,36.09375,1005,605,172
0,0,2,290,0.1864013671875,-0.06573486328125,0.24835205078125,-85.56365966796875,5.60760498046875,-58.05206298828125,36.09375,1017,618,172
0,0,2,300,0.1864013671875,-0.06573486328125,0.24835205078125,-85.56365966796875,5.60760498046875,-58.05206298828125,36.09375,1004,622,175
0,0,2,310,0.10772705078125,0.01361083984375,0.2933349609375,-82.000732421875,6.21795654296875,-68.90106201171875,39.09375,1001,619,150
0,0,2,320,0.10772705078125,0.01361083984375,0.2933349609375,-82.000732421875,6.21795654296875,-68.90106201171875,39.09375,1018,603,167
0,0,2,330,0.079345703125,0.09783935546875,0.3538818359375,-93.170166015625,16.387939453125,-84.87701416015625,39.09375,1020,613,153
0,0,2,340,0.079345703125,0.09783935546875,0.3538818359375,-93.170166015625,16.387939453125,-84.87701416015625,39.09375,1037,617,164
0,0,2,350,0.10009765625,0.10345458984375,0.36627197265625,-108.20770263671875,27.19879150390625,-93.05572509765625,36.09375,1019,607,167
0,0,2,360,0.10009765625,0.10345458984375,0.36627197265625,-108.20770263671875,27.19879150390625,-93.05572509765625,36.09375,1012,604,161
0,0,2,370,0.1358642578125,0.07537841796875,0.3116455078125,-114.105224609375,34.12628173828125,-84.2742919921875,36.09375,1024,618,169
0,0,2,380,0.1358642578125,0.12225341796875,0.21826171875,-114.105224609375,34.12628173828125,-84.2742919921875,36.09375,1029,616,164
0,0,2,390,0.15679931640625,0.11163330078125,0.21826171875,-104.034423828125,24.36065673828125,-79.498291015625,36.09375,1014,610,168
0,0,2,400,0.1309814453125,0.11383056640625,0.18353271484375,-93.78814697265625,9.89532470703125,-81.0546875,38.09375,1014,612,161
0,0,2,410,0.1309814453125,0.11383056640625,0.18353271484375,-93.78814697265625,9.89532470703125,-81.0546875,38.09375,1018,612,177
0,0,2,420,0.0838623046875,0.02349853515625,0.2076416015625,-94.757080078125,5.04302978515625,-90.728759765625,38.09375,1013,607,176
0,0,2,430,0.0838623046875,0.02349853515625,0.2076416015625,-94.757080078125,5.04302978515625,-90.728759765625,38.09375,1013,613,190
0,0,2,440,0.11572265625,-0.06182861328125,0.2113037109375,-96.160888671875,8.392333984375,-84.90753173828125,41.09375,1010,620,173
0,0,2,450,0.11572265625,-0.06182861328125,0.2113037109375,-96.160888671875,8.392333984375,-84.90753173828125,41.09375,1019,609,176
0,0,2,460,0.14093017578125,-0.10009765625,0.21136474609375,-88.70697021484375,13.4124755859375,-76.40838623046875,41.09375,1033,626,165
0,0,2,470,0.14093017578125,-0.10009765625,0.21136474609375,-88.70697021484375,13.4124755859375,-76.40838623046875,41.09375,1039,620,179
0,0,2,480,0.11224365234375,-0.0986328125,0.24334716796875,-102.34832763671875,27.618408203125,-71.34246826171875,41.09375,1061,607,174
0,0,2,490,0.11224365234375,-0.0986328125,0.24334716796875,-102.34832763671875,27.618408203125,-71.34246826171875,37.09375,1077,603,172
0,0,2,500,0.046630859375,-0.0799560546875,0.215087890625,-121.40655517578125,43.00689697265625,-73.35662841796875,37.09375,1087,611,172
0,0,2,510,0.046630859375,-0.0799560546875,0.215087890625,-121.40655517578125,43.00689697265625,-73.35662841796875,37.09375,1105,622,160
0,0,2,520,0.0147705078125,-0.08642578125,0.1005859375,-126.04522705078125,44.37255859375,-82.51190185546875,37.09375,1079,610,157
0,0,2,530,0.0615234375,-0.13983154296875,-0.02752685546875,-126.04522705078125,44.37255859375,-82.51190185546875,37.09375,1079,614,165
0,0,2,540,0.0615234375,-0.13983154296875,-0.02752685546875,-105.621337890625,30.34210205078125,-74.31793212890625,42.09375,1067,612,168
0,0,2,550,0.06500244140625,-0.09814453125,-0.0616455078125,-93.14727783203125,19.06585693359375,-70.61004638671875,42.09375,1062,616,161
0,0,2,560,0.06500244140625,-0.09814453125,-0.0616455078125,-93.14727783203125,19.06585693359375,-70.61004638671875,42.09375,1053,606,163
0,0,2,570,0.01849365234375,-0.08172607421875,-0.02056884765625,-82.86285400390625,10.467529296875,-78.0181884765625,42.09375,1021,603,159
0,0,2,580,0.01849365234375,-0.08172607421875,-0.02056884765625,-82.86285400390625,10.467529296875,-78.0181884765625,41.09375,1004,625,170
0,0,2,590,0.01385498046875,-0.0810546875,0.0391845703125,-91.796875,13.02337646484375,-82.3974609375,41.09375,1001,600,152
0,0,2,600,0.01385498046875,-0.0810546875,0.0391845703125,-91.796875,13.02337646484375,-82.3974609375,41.09375,1031,628,159
0,0,2,610,0.03521728515625,-0.1053466796875,0.0823974609375,-100.56304931640625,20.751953125,-74.9969482421875,41.09375,1031,621,163
0,0,2,620,0.03521728515625,-0.1053466796875,0.0823974609375,-100.56304931640625,20.751953125,-74.9969482421875,41.09375,1078,637,170
0,0,2,630,0.03912353515625,-0.11175537109375,0.06890869140625,-104.827880859375,23.49090576171875,-78.17840576171875,42.09375,1070,634,157
0,0,2,640,0.03912353515625,-0.11175537109375,0.06890869140625,-104.827880859375,23.49090576171875,-78.17840576171875,42.09375,1039,645,184
0,0,2,650,0.10137939453125,-0.15869140625,0.0341796875,-92.36907958984375,17.28057861328125,-73.272705078125,42.09375,1044,662,175
0,0,2,660,0.10137939453125,-0.15869140625,0.0654296875,-92.36907958984375,17.28057861328125,-73.272705078125,42.09375,1045,649,163
0,0,2,670,0.138671875,-0.14605712890625,0.06317138671875,-91.60614013671875,21.6064453125,-61.98883056640625,39.09375,1062,653,178
0,0,2,680,0.12841796875,-0.07666015625,0.0902099609375,-98.5870361328125,26.3671875,-66.16973876953125,39.09375,1043,654,172
0,0,2,690,0.12841796875,-0.07666015625,0.0902099609375,-98.5870361328125,26.3671875,-66.16973876953125,39.09375,1047,664,179
0,0,2,700,0.12298583984375,-0.05621337890625,0.0975341796875,-103.26385498046875,30.60150146484375,-65.5364990234375,39.09375,1024,678,176
0,0,2,710,0.12298583984375,-0.05621337890625,0.0975341796875,-103.26385498046875,30.60150146484375,-65.5364990234375,39.09375,1028,675,177
0,0,2,720,0.1043701171875,-0.03399658203125,0.08282470703125,-108.642578125,32.85980224609375,-67.58880615234375,38.09375,1030,698,179
0,0,2,730,0.1043701171875,-0.03399658203125,0.08282470703125,-108.642578125,32.85980224609375,-67.58880615234375,38.09375,1052,702,168
0,0,2,740,0.10760498046875,0.009765625,0.0482177734375,-105.56793212890625,32.012939453125,-63.0035400390625,38.09375,1049,699,171
0,0,2,750,0.10760498046875,0.009765625,0.0482177734375,-105.56793212890625,32.012939453125,-63.0035400390625,38.09375,1063,716,169
0,0,2,760,0.0654296875,-0.0147705078125,0.02154541015625,-101.99737548828125,28.86199951171875,-65.91033935546875,42.09375,1074,700,174
0,0,2,770,0.0654296875,-0.0147705078125,0.02154541015625,-101.99737548828125,28.86199951171875,-65.91033935546875,42.09375,1088,709,183
0,0,2,780,0.0277099609375,-0.01678466796875,0.01055908203125,-98.48785400390625,24.8870849609375,-72.85308837890625,42.09375,1096,691,182
0,0,2,790,0.0277099609375,-0.01678466796875,0.01055908203125,-98.48785400390625,24.8870849609375,-72.85308837890625,42.09375,1118,685,180
0,0,2,800,0.02642822265625,-0.00506591796875,0.010498046875,-99.6246337890625,24.07073974609375,-76.4617919921875,42.09375,1156,692,194
0,0,2,810,0.03118896484375,0.01678466796875,0.00567626953125,-99.6246337890625,24.07073974609375,-76.4617919921875,41.09375,1197,683,184
0,0,2,820,0.03118896484375,0.01678466796875,0.00567626953125,-97.09930419921875,20.050048828125,-83.86993408203125,41.09375,1292,704,190
0,0,2,830,0.064697265625,-0.005126953125,0.01104736328125,-98.14453125,19.4091796875,-88.26446533203125,41.09375,1387,778,192
0,0,2,840,0.064697265625,-0.005126953125,0.01104736328125,-98.14453125,19.4091796875,-88.26446533203125,41.09375,1495,884,197
0,0,2,850,0.10186767578125,-0.04339599609375,0.011962890625,-94.90966796875,18.57757568359375,-77.88848876953125,44.09375,1588,977,197
0,0,2,860,0.10186767578125,-0.04339599609375,0.011962890625,-94.90966796875,18.57757568359375,-77.88848876953125,44.09375,1673,1088,215
0,0,2,870,0.09796142578125,-0.0465087890625,0.02459716796875,-94.3145751953125,19.10400390625,-66.93267822265625,44.09375,1740,1134,213
0,0,2,880,0.09796142578125,-0.0465087890625,0.02459716796875,-94.3145751953125,19.10400390625,-66.93267822265625,44.09375,1744,1177,216
0,0,2,890,0.0499267578125,-0.03472900390625,0.0384521484375,-98.65570068359375,21.64459228515625,-66.79534912109375,44.09375,1747,1205,217
0,0,2,900,0.02947998046875,-0.023193359375,0.03265380859375,-98.65570068359375,21.64459228515625,-66.79534912109375,45.09375,1756,1221,214
0,0,2,910,0.02947998046875,-0.023193359375,0.03265380859375,-100.31890869140625,22.02606201171875,-73.03619384765625,45.09375,1761,1240,222
0,0,2,920,0.02947998046875,-0.023193359375,0.03265380859375,-100.31890869140625,22.02606201171875,-73.03619384765625,45.09375,1777,1261,218
0,0,2,930,0.05621337890625,-0.017822265625,0.0201416015625,-97.0458984375,19.93560791015625,-74.22637939453125,45.09375,1790,1284,222
0,0,2,940,0.05621337890625,-0.017822265625,0.0201416015625,-97.0458984375,19.93560791015625,-74.22637939453125,45.09375,1846,1330,252
0,0,2,950,0.07733154296875,-0.018310546875,0.02423095703125,-96.923828125,20.77484130859375,-66.10107421875,45.09375,1920,1402,267
0,0,2,960,0.054443359375,0.00189208984375,0.02685546875,-102.783203125,23.773193359375,-67.718505859375,45.09375,2001,1509,307
0,0,2,970,0.054443359375,0.00189208984375,0.02685546875,-102.081298828125,23.773193359375,-67.718505859375,45.09375,2110,1646,328
0,0,2,980,0.03729248046875,-0.001708984375,0.0108642578125,-102.813720703125,22.6593017578125,-70.648193359375,45.09375,2272,1814,355
0,0,2,990,0.03729248046875,-0.001708984375,0.0108642578125,-102.813720703125,22.6593017578125,-70.648193359375,44.09375,2515,1993,367
0,0,3,0,0.0399169921875,0.00634765625,-0.00762939453125,-94.268798828125,16.3726806640625,-72.6470947265625,44.09375,2806,2233,373
0,0,3,10,0.0399169921875,0.00634765625,-0.00762939453125,-94.268798828125,16.3726806640625,-72.6470947265625,44.09375,3180,2480,392
0,0,3,20,0.03363037109375,0.0191650390625,0.00885009765625,-92.0562744140625,13.89312744140625,-77.36968994140625,44.09375,3553,2715,413
0,0,3,30,0.03363037109375,0.0191650390625,0.00885009765625,-92.0562744140625,13.89312744140625,-77.36968994140625,44.09375,3945,2836,443
0,0,3,40,0.0133056640625,0.008544921875,0.0445556640625,-93.170166015625,16.0369873046875,-78.7811279296875,45.09375,4159,2816,437
0,0,3,50,0.0133056640625,0.008544921875,0.0445556640625,-93.170166015625,16.0369873046875,-78.7811279296875,45.09375,4237,2733,421
0,0,3,60,0.0333251953125,0.01348876953125,0.060302734375,-100.27313232421875,20.45440673828125,-82.122802734375,45.09375,4185,2631,386
0,0,3,70,0.0333251953125,0.01348876953125,0.060302734375,-100.27313232421875,20.45440673828125,-82.122802734375,45.09375,4016,2520,343
0,0,3,80,0.0615234375,-0.00347900390625,0.04205322265625,-101.44805908203125,22.34649658203125,-72.20458984375,45.09375,3739,2360,334
0,0,3,90,0.039306640625,-0.00091552734375,0.01904296875,-101.44805908203125,22.34649658203125,-72.20458984375,45.09375,3452,2230,304
0,0,3,100,0.039306640625,-0.00091552734375,0.01904296875,-96.80938720703125,20.01953125,-72.5250244140625,45.09375,3177,2092,293
0,0,3,110,0.0177001953125,0.0059814453125,0.01611328125,-99.00665283203125,21.41571044921875,-77.82745361328125,45.09375,2965,2021,267
0,0,3,120,0.0177001953125,0.0059814453125,0.01611328125,-99.00665283203125,21.41571044921875,-77.82745361328125,45.09375,2791,1920,236
0,0,3,130,0.0247802734375,0.00067138671875,0.01043701171875,-96.7864990234375,20.66802978515625,-78.18603515625,49.09375,2607,1811,201
0,0,3,140,0.0247802734375,0.00067138671875,0.01043701171875,-96.7864990234375,20.66802978515625,-78.18603515625,49.09375,2446,1724,195
0,0,3,150,0.03765869140625,-0.00128173828125,0.0140380859375,-97.90802001953125,21.47674560546875,-77.1484375,49.09375,2349,1661,170
0,0,3,160,0.03765869140625,-0.00128173828125,0.0140380859375,-97.90802001953125,21.47674560546875,-77.1484375,49.09375,2289,1664,176
0,0,3,170,0.0416259765625,-0.00238037109375,0.01531982421875,-97.9156494140625,21.30126953125,-73.02093505859375,49.09375,2241,1630,170
0,0,3,180,0.0416259765625,-0.00238037109375,0.01531982421875,-97.9156494140625,21.30126953125,-73.02093505859375,49.09375,2239,1662,224
0,0,3,190,0.02581787109375,-0.00079345703125,0.02044677734375,-96.6033935546875,20.3094482421875,-73.82965087890625,49.09375,2286,1719,146
0,0,3,200,0.02581787109375,-0.00079345703125,0.02044677734375,-96.6033935546875,20.3094482421875,-73.82965087890625,49.09375,2396,1832,184
0,0,3,210,0.0166015625,-0.01080322265625,0.033935546875,-97.0458984375,21.06475830078125,-77.0721435546875,49.09375,2556,1987,201
0,0,3,220,0.0166015625,-0.01080322265625,0.033935546875,-97.0458984375,21.06475830078125,-77.0721435546875,51.09375,2762,2173,204
0,0,3,230,0.02960205078125,-0.00018310546875,0.0364990234375,-96.466064453125,20.99609375,-77.484130859375,51.09375,3044,2445,259
0,0,3,240,0.03851318359375,0.01348876953125,0.03961181640625,-96.466064453125,20.99609375,-78.216552734375,51.09375,3450,2831,289
0,0,3,250,0.03851318359375,0.01348876953125,0.03961181640625,-98.388671875,21.270751953125,-78.216552734375,51.09375,4055,3390,347
0,0,3,260,0.0369873046875,0.00335693359375,0.037353515625,-99.2889404296875,21.0723876953125,-78.857421875,51.09375,4859,4124,391
0,0,3,270,0.0369873046875,0.00335693359375,0.037353515625,-99.2889404296875,21.0723876953125,-78.857421875,55.09375,5952,5100,465
0,0,3,280,0.0350341796875,-0.01416015625,0.0323486328125,-96.65679931640625,19.561767578125,-77.84271240234375,55.09375,7426,6405,575
0,0,3,290,0.0350341796875,-0.01416015625,0.0323486328125,-96.65679931640625,19.561767578125,-77.84271240234375,55.09375,9231,8063,690
0,0,3,300,0.0274658203125,-0.0242919921875,0.0360107421875,-95.26824951171875,19.7906494140625,-74.39422607421875,55.09375,11219,9838,829
0,0,3,310,0.0274658203125,-0.0242919921875,0.0360107421875,-95.26824951171875,19.7906494140625,-74.39422607421875,52.09375,13149,11595,962
0,0,3,320,0.01202392578125,-0.0155029296875,0.0423583984375,-98.6785888671875,23.3612060546875,-74.69940185546875,52.09375,14867,13249,1103
0,0,3,330,0.01202392578125,-0.0155029296875,0.0423583984375,-98.6785888671875,23.3612060546875,-74.69940185546875,52.09375,16034,14638,1206
0,0,3,340,0.008544921875,-0.000244140625,0.033447265625,-99.365234375,23.9410400390625,-78.91845703125,52.09375,16578,15568,1280
0,0,3,350,0.008544921875,-0.000244140625,0.033447265625,-99.365234375,23.9410400390625,-78.91845703125,52.09375,16769,16169,1320
0,0,3,360,0.02557373046875,-0.0009765625,0.02239990234375,-98.0377197265625,23.13995361328125,-77.880859375,55.09375,17071,16638,1352
0,0,3,370,0.02557373046875,0.005615234375,0.01519775390625,-98.0377197265625,23.13995361328125,-77.880859375,55.09375,17712,17396,1410
0,0,3,380,0.0455322265625,0.005615234375,0.01519775390625,-96.5728759765625,21.881103515625,-77.606201171875,55.09375,18909,18709,1497
0,0,3,390,0.06121826171875,0.0128173828125,0.01708984375,-96.00067138671875,22.10235595703125,-74.21112060546875,55.09375,20662,20279,1615
0,0,3,400,0.06121826171875,0.0128173828125,0.01708984375,-96.00067138671875,22.10235595703125,-74.21112060546875,55.09375,22371,21357,1637
0,0,3,410,0.05194091796875,0.0181884765625,0.02001953125,-96.8475341796875,24.13177490234375,-72.296142578125,55.09375,23103,21348,1594
0,0,3,420,0.05194091796875,0.0181884765625,0.02001953125,-96.8475341796875,24.13177490234375,-72.296142578125,55.09375,22285,20286,1493
0,0,3,430,0.03900146484375,0.04266357421875,0.01739501953125,-94.24591064453125,23.223876953125,-71.1212158203125,55.09375,20325,18434,1301
0,0,3,440,0.03900146484375,0.04266357421875,0.01739501953125,-94.24591064453125,23.223876953125,-71.1212158203125,55.09375,17855,16171,1100
0,0,3,450,0.04168701171875,0.08660888671875,0.02069091796875,-93.9483642578125,21.484375,-71.00677490234375,57.09375,15386,13694,933
0,0,3,460,0.04168701171875,0.08660888671875,0.02069091796875,-93.9483642578125,21.484375,-71.00677490234375,57.09375,15515,13167,883
0,0,3,470,-0.001708984375,0.05389404296875,0.0369873046875,-95.733642578125,22.247314453125,-71.81549072265625,57.09375,16727,14759,1064
0,0,3,480,-0.001708984375,0.05389404296875,0.0369873046875,-95.733642578125,22.247314453125,-71.81549072265625,57.09375,20820,19322,1435
0,0,3,490,-0.0413818359375,0.03753662109375,0.0372314453125,-100.0518798828125,23.651123046875,-76.54571533203125,57.09375,26164,25160,1832
0,0,3,500,-0.0413818359375,0.03753662109375,0.0372314453125,-100.0518798828125,23.651123046875,-76.54571533203125,57.09375,31467,30544,2254
0,0,3,510,-0.036376953125,0.03662109375,0.01983642578125,-99.5941162109375,21.58355712890625,-87.310791015625,57.09375,36904,34426,2635
0,0,3,520,-0.0107421875,0.00042724609375,0.013671875,-99.5941162109375,21.58355712890625,-91.217041015625,57.09375,40262,36844,2899
0,0,3,530,-0.0107421875,0.00042724609375,0.013671875,-96.37451171875,20.71380615234375,-90.4998779296875,57.09375,41180,39774,3061
0,0,3,540,0.0341796875,-0.01348876953125,0.02178955078125,-92.64373779296875,18.5546875,-89.17236328125,61.09375,38611,39438,3013
0,0,3,550,0.0341796875,-0.01348876953125,0.02178955078125,-92.64373779296875,18.5546875,-89.17236328125,61.09375,37856,38285,2907
0,0,3,560,0.06707763671875,-0.02520751953125,0.0418701171875,-93.63555908203125,21.8505859375,-76.263427734375,61.09375,37685,36088,2748
0,0,3,570,0.06707763671875,-0.02520751953125,0.0418701171875,-93.63555908203125,21.8505859375,-76.263427734375,61.09375,36868,35347,2753
0,0,3,580,0.04827880859375,-0.015625,0.05133056640625,-96.09222412109375,25.81024169921875,-69.000244140625,64.09375,42689,41762,3308
0,0,3,590,0.04827880859375,-0.015625,0.05133056640625,-96.09222412109375,25.81024169921875,-69.000244140625,64.09375,50794,51133,4151
0,0,3,600,0.01983642578125,0.01239013671875,0.03955078125,-98.71673583984375,25.6195068359375,-81.68792724609375,64.09375,61109,62706,5308
0,0,3,610,0.01983642578125,0.01239013671875,0.03955078125,-98.71673583984375,25.6195068359375,-81.68792724609375,64.09375,73666,73876,6501
0,0,3,620,0.0321044921875,-0.0078125,0.023193359375,-97.92327880859375,24.7039794921875,-83.35113525390625,64.09375,82818,82111,7258
0,0,3,630,0.0321044921875,-0.0078125,0.023193359375,-97.92327880859375,24.7039794921875,-83.35113525390625,65.09375,90998,87325,7704
0,0,3,640,0.05010986328125,-0.02691650390625,0.016845703125,-98.59466552734375,24.6734619140625,-82.94677734375,65.09375,98548,93243,8291
0,0,3,650,0.05010986328125,-0.02691650390625,0.0050048828125,-98.59466552734375,24.6734619140625,-82.94677734375,65.09375,110511,106667,9146
0,0,3,660,0.0765380859375,-0.04058837890625,0.0050048828125,-97.08404541015625,23.3612060546875,-71.10595703125,65.09375,115863,117074,8472
0,0,3,670,0.0462646484375,-0.046142578125,0.00445556640625,-94.7113037109375,21.33941650390625,-68.16864013671875,65.09375,112375,113427,8144
0,0,3,680,0.0462646484375,-0.046142578125,0.00445556640625,-94.7113037109375,21.33941650390625,-68.16864013671875,74.09375,113103,116049,7827
0,0,3,690,0.01348876953125,-0.034912109375,0.01531982421875,-95.90911865234375,22.14813232421875,-72.8302001953125,74.09375,112844,114969,8196
0,0,3,700,0.01348876953125,-0.034912109375,0.01531982421875,-95.90911865234375,22.14813232421875,-72.8302001953125,74.09375,113311,114984,8453
0,0,3,710,0.01092529296875,-0.03240966796875,0.02069091796875,-96.41265869140625,23.86474609375,-75.69122314453125,74.09375,112825,113383,8846
0,0,3,720,0.01092529296875,-0.03240966796875,0.02069091796875,-96.41265869140625,23.86474609375,-75.69122314453125,93.09375,112651,112306,9261
0,0,3,730,0.022216796875,-0.03167724609375,0.0198974609375,-93.52874755859375,23.59771728515625,-73.7457275390625,93.09375,108147,107296,9356
0,0,3,740,0.022216796875,-0.03167724609375,0.0198974609375,-93.52874755859375,23.59771728515625,-73.7457275390625,93.09375,99022,98281,8774
0,0,3,750,0.01678466796875,-0.02587890625,0.029052734375,-91.74346923828125,22.8729248046875,-72.3419189453125,93.09375,89837,90542,8051
0,0,3,760,0.01678466796875,-0.02587890625,0.029052734375,-91.74346923828125,22.8729248046875,-72.3419189453125,93.09375,86225,86623,7546
0,0,3,770,-0.00030517578125,-0.0260009765625,0.04827880859375,-91.0491943359375,22.54486083984375,-76.01165771484375,122.09375,86357,85595,7276
0,0,3,780,-0.00030517578125,-0.0260009765625,0.04827880859375,-91.0491943359375,22.54486083984375,-76.01165771484375,122.09375,93351,90318,7733
0,0,3,790,-0.01287841796875,-0.02301025390625,0.06781005859375,-96.1456298828125,26.10015869140625,-78.67431640625,122.09375,109343,104676,9227
0,0,3,800,-0.00640869140625,-0.0145263671875,0.0582275390625,-96.1456298828125,26.10015869140625,-78.67431640625,122.09375,116327,114810,7542
0,0,3,810,-0.00640869140625,-0.0145263671875,0.0582275390625,-99.81536865234375,28.6407470703125,-87.188720703125,-111.90625,112011,114215,6444
0,0,3,820,0.0450439453125,-0.02960205078125,0.032470703125,-97.3968505859375,27.3590087890625,-83.6181640625,-111.90625,113161,119277,6566
0,0,3,830,0.0450439453125,-0.02960205078125,0.032470703125,-97.3968505859375,27.3590087890625,-83.6181640625,-111.90625,116949,124380,6860
0,0,3,840,0.078857421875,-0.0238037109375,0.0140380859375,-94.8486328125,25.4364013671875,-71.49505615234375,-111.90625,119583,128034,7089
0,0,3,850,0.078857421875,-0.0238037109375,0.0140380859375,-94.8486328125,25.4364013671875,-71.49505615234375,-111.90625,121392,130813,7298
0,0,3,860,0.0555419921875,-0.0125732421875,0.0120849609375,-91.583251953125,22.91107177734375,-66.2841796875,-89.90625,122701,133061,7478
0,0,3,870,0.0555419921875,-0.0125732421875,0.0120849609375,-91.583251953125,22.91107177734375,-66.2841796875,-89.90625,123901,134648,7639
0,0,3,880,0.01092529296875,-0.0107421875,0.0286865234375,-91.74346923828125,22.34649658203125,-71.34246826171875,-89.90625,125017,136627,7769
0,0,3,890,0.01092529296875,-0.0107421875,0.0286865234375,-91.74346923828125,22.34649658203125,-71.34246826171875,-89.90625,126193,138647,7918
0,0,3,900,-0.0054931640625,-0.0191650390625,0.0455322265625,-93.048095703125,23.30780029296875,-78.1707763671875,-69.90625,127195,140187,8016
0,0,3,910,-0.0054931640625,-0.0191650390625,0.0455322265625,-93.048095703125,23.30780029296875,-78.1707763671875,-69.90625,127977,141309,8111
0,0,3,920,0.01470947265625,-0.01458740234375,0.05157470703125,-98.663330078125,26.83258056640625,-80.4595947265625,-69.90625,128587,142171,8168
0,0,3,930,0.01470947265625,-0.01458740234375,0.03594970703125,-98.663330078125,26.83258056640625,-80.4595947265625,-69.90625,129003,142785,8233
0,0,3,940,0.0386962890625,-0.01251220703125,0.0369873046875,-98.10638427734375,27.21405029296875,-79.132080078125,-69.90625,129354,143267,8284
0,0,3,950,0.0511474609375,-0.01800537109375,0.02532958984375,-92.315673828125,24.9176025390625,-76.385498046875,-43.90625,129611,143629,8302
0,0,3,960,0.0511474609375,-0.01800537109375,0.02532958984375,-92.315673828125,24.9176025390625,-76.385498046875,-43.90625,129807,143905,8331
0,0,3,970,0.05450439453125,-0.00860595703125,0.03656005859375,-90.5303955078125,25.52032470703125,-74.6002197265625,-43.90625,129960,144094,8365
0,0,3,980,0.05450439453125,-0.00860595703125,0.03656005859375,-90.5303955078125,25.52032470703125,-74.6002197265625,-43.90625,130046,144237,8406
0,0,3,990,0.0543212890625,0.01123046875,0.05523681640625,-90.96527099609375,25.543212890625,-71.66290283203125,-19.90625,130137,144359,8419
0,0,4,0,0.0543212890625,0.01123046875,0.05523681640625,-90.96527099609375,25.543212890625,-71.66290283203125,-19.90625,130206,144440,8433
0,0,4,10,0.0341796875,0.0281982421875,0.07366943359375,-96.2982177734375,28.26690673828125,-73.50921630859375,-19.90625,130257,144544,8468
0,0,4,20,0.0341796875,0.0281982421875,0.07366943359375,-96.2982177734375,28.26690673828125,-73.50921630859375,-19.90625,130319,144633,8503
0,0,4,30,0.01513671875,0.02386474609375,0.06829833984375,-101.55487060546875,32.135009765625,-77.50701904296875,-19.90625,130429,144826,8530
0,0,4,40,0.01513671875,0.02386474609375,0.06829833984375,-101.55487060546875,32.135009765625,-77.50701904296875,2.09765625,130528,144966,8560
0,0,4,50,0.01727294921875,0.01959228515625,0.03924560546875,-100.60882568359375,32.1502685546875,-80.46722412109375,2.09765625,130639,145103,8577
0,0,4,60,0.01727294921875,0.01959228515625,0.03924560546875,-100.60882568359375,32.1502685546875,-80.46722412109375,2.09765625,130754,145243,8617
0,0,4,70,0.02618408203125,0.016357421875,0.01800537109375,-98.04534912109375,30.06744384765625,-79.864501953125,2.09765625,130832,145350,8636
0,0,4,80,0.029052734375,0.0130615234375,0.0120849609375,-98.04534912109375,30.06744384765625,-79.864501953125,2.09765625,130944,145466,8663
0,0,4,90,0.029052734375,0.0130615234375,0.0120849609375,-92.987060546875,26.4892578125,-78.69720458984375,17.09765625,131023,145591,8693
0,0,4,100,0.02520751953125,0.01507568359375,0.02679443359375,-94.32220458984375,26.885986328125,-77.40020751953125,17.09765625,131128,145700,8695
0,0,4,110,0.02520751953125,0.01507568359375,0.02679443359375,-94.32220458984375,26.885986328125,-77.40020751953125,17.09765625,130694,145767,8737
0,0,4,120,0.01861572265625,0.01904296875,0.03466796875,-93.6431884765625,28.34320068359375,-77.90374755859375,17.09765625,130759,145829,8734
0,0,4,130,0.01861572265625,0.01904296875,0.03466796875,-93.6431884765625,28.34320068359375,-77.90374755859375,32.09765625,130793,145892,8769
0,0,4,140,0.01971435546875,0.02215576171875,0.04241943359375,-94.47479248046875,30.79986572265625,-74.95880126953125,32.09765625,130855,145966,8797
0,0,4,150,0.01971435546875,0.02215576171875,0.04241943359375,-94.47479248046875,30.79986572265625,-74.95880126953125,32.09765625,130903,146047,8795
0,0,4,160,0.011962890625,0.0323486328125,0.04296875,-93.109130859375,30.06744384765625,-80.72662353515625,32.09765625,130944,146094,8831
0,0,4,170,0.011962890625,0.0323486328125,0.04296875,-93.109130859375,30.06744384765625,-80.72662353515625,32.09765625,130979,146158,8838
0,0,4,180,0.0328369140625,0.052001953125,0.04510498046875,-91.8426513671875,30.37261962890625,-79.32281494140625,51.09765625,131015,146218,8869
0,0,4,190,0.0328369140625,0.052001953125,0.04510498046875,-91.8426513671875,30.37261962890625,-79.32281494140625,51.09765625,131046,146248,8882
0,0,4,200,0.03509521484375,0.07244873046875,0.044921875,-97.98431396484375,30.7159423828125,-87.2802734375,51.09765625,131055,146298,8918
0,0,4,210,0.03509521484375,0.07244873046875,0.044921875,-97.98431396484375,30.7159423828125,-87.2802734375,51.09765625,131084,146301,8935
0,0,4,220,0.01983642578125,0.00640869140625,0.036376953125,-94.01702880859375,28.46527099609375,-80.6884765625,66.09765625,131081,146305,8954
0,0,4,230,0.015380859375,0.00433349609375,0.03216552734375,-92.06390380859375,27.374267578125,-83.984375,66.09765625,131083,146314,8957
0,0,4,240,0.015380859375,0.00433349609375,0.03216552734375,-91.8121337890625,27.374267578125,-83.984375,66.09765625,131051,146297,8965
0,0,4,250,0.0096435546875,0.00030517578125,0.037841796875,-94.1925048828125,30.28106689453125,-75.75225830078125,66.09765625,131020,146253,8977
0,0,4,260,0.0096435546875,0.00030517578125,0.037841796875,-94.1925048828125,30.28106689453125,-75.75225830078125,66.09765625,131014,146233,8970
0,0,4,270,-0.00628662109375,0.0010986328125,0.0316162109375,-95.184326171875,31.04400634765625,-85.92987060546875,79.09765625,131011,146245,8993
0,0,4,280,-0.00628662109375,0.0010986328125,0.0316162109375,-95.184326171875,31.04400634765625,-85.92987060546875,79.09765625,131009,146265,8995
0,0,4,290,0.01788330078125,-0.03009033203125,0.01739501953125,-93.39141845703125,31.66961669921875,-76.171875,79.09765625,131020,146272,9009
0,0,4,300,0.01788330078125,-0.03009033203125,0.01739501953125,-93.39141845703125,31.66961669921875,-76.171875,79.09765625,131031,146325,9016
0,0,4,310,0.01312255859375,-0.014404296875,0.007080078125,-90.301513671875,30.05218505859375,-76.3397216796875,99.09765625,131028,146344,9033
0,0,4,320,0.01312255859375,-0.014404296875,0.007080078125,-90.301513671875,30.05218505859375,-76.3397216796875,99.09765625,131040,146336,9050
0,0,4,330,0.0174560546875,-0.00347900390625,0.0096435546875,-92.43011474609375,30.670166015625,-75.15716552734375,99.09765625,131009,146301,9061
0,0,4,340,0.0174560546875,-0.00347900390625,0.0096435546875,-92.43011474609375,30.670166015625,-75.15716552734375,99.09765625,130982,146243,9086
0,0,4,350,0.0162353515625,0.00604248046875,0.00396728515625,-91.97998046875,29.998779296875,-77.8045654296875,99.09765625,130956,146128,9081
0,0,4,360,0.02044677734375,0.00567626953125,0.0029296875,-91.97998046875,29.998779296875,-77.8045654296875,108.09765625,130874,145985,9104
0,0,4,370,0.02044677734375,0.00567626953125,0.0029296875,-88.9892578125,27.93121337890625,-78.8421630859375,108.09765625,130819,145852,9092
0,0,4,380,0.02166748046875,0.0086669921875,0.01385498046875,-91.9647216796875,30.00640869140625,-80.74188232421875,108.09765625,130768,145745,9091
0,0,4,390,0.02166748046875,0.0086669921875,0.01385498046875,-91.9647216796875,30.00640869140625,-80.74188232421875,108.09765625,130741,145691,9106
0,0,4,400,0.04388427734375,0.02288818359375,0.010986328125,-90.53802490234375,30.75408935546875,-81.024169921875,108.09765625,130747,145656,9122
0,0,4,410,0.04388427734375,0.02288818359375,0.010986328125,-90.53802490234375,30.75408935546875,-81.024169921875,123.09765625,130748,145651,9122
0,0,4,420,0.0565185546875,0.0338134765625,0.01171875,-90.0726318359375,29.04510498046875,-81.9091796875,123.09765625,130776,145664,9136
0,0,4,430,0.0565185546875,0.0338134765625,0.01171875,-90.0726318359375,29.04510498046875,-81.9091796875,123.09765625,130771,145694,9146
0,0,4,440,0.01422119140625,-0.005859375,0.02960205078125,-91.30096435546875,31.2957763671875,-79.4525146484375,123.09765625,130791,145750,9153
0,0,4,450,0.01422119140625,-0.005859375,0.02960205078125,-91.30096435546875,31.2957763671875,-79.4525146484375,-120.90234375,130808,145763,9166
0,0,4,460,0.00958251953125,-0.00311279296875,0.02435302734375,-94.32220458984375,34.78240966796875,-84.72442626953125,-120.90234375,130828,145836,9180
0,0,4,470,0.00958251953125,-0.00311279296875,0.02435302734375,-94.32220458984375,34.78240966796875,-84.72442626953125,-120.90234375,130847,145885,9194
0,0,4,480,0.02642822265625,-0.01055908203125,0.00701904296875,-92.2698974609375,33.6761474609375,-79.87213134765625,-120.90234375,130871,145916,9211
0,0,4,490,0.02642822265625,-0.01055908203125,0.00701904296875,-92.2698974609375,33.6761474609375,-79.87213134765625,-120.90234375,130874,145960,9216
0,0,4,500,0.01580810546875,-0.01275634765625,0.00286865234375,-90.79742431640625,31.55517578125,-81.390380859375,-109.90234375,130886,145990,9243
0,0,4,510,0.02081298828125,-0.00958251953125,0.0047607421875,-90.79742431640625,31.55517578125,-78.97186279296875,-109.90234375,130906,146013,9246
0,0,4,520,0.02081298828125,-0.00958251953125,0.0047607421875,-91.01104736328125,31.158447265625,-78.97186279296875,-109.90234375,130925,146053,9244
0,0,4,530,0.0140380859375,-0.00335693359375,0.00531005859375,-94.879150390625,33.355712890625,-81.27593994140625,-109.90234375,130936,146079,9278
0,0,4,540,0.0140380859375,-0.00335693359375,0.00531005859375,-94.879150390625,33.355712890625,-81.27593994140625,-94.90234375,130964,146141,9264
0,0,4,550,0.02117919921875,-0.0107421875,-0.00830078125,-92.864990234375,32.34100341796875,-81.8634033203125,-94.90234375,130973,146174,9279
0,0,4,560,0.02117919921875,-0.0107421875,-0.00830078125,-92.864990234375,32.34100341796875,-81.8634033203125,-94.90234375,131011,146235,9300
0,0,4,570,0.03253173828125,-0.0059814453125,-0.01409912109375,-88.92822265625,29.8919677734375,-77.06451416015625,-94.90234375,131030,146282,9311
0,0,4,580,0.03253173828125,-0.0059814453125,-0.01409912109375,-88.92822265625,29.8919677734375,-77.06451416015625,-94.90234375,131046,146324,9321
0,0,4,590,0.02001953125,-0.0010986328125,-0.003662109375,-91.12548828125,30.9600830078125,-78.460693359375,-83.90234375,131076,146363,9327
0,0,4,600,0.02001953125,-0.0010986328125,-0.003662109375,-91.12548828125,30.9600830078125,-78.460693359375,-83.90234375,131083,146379,9342
0,0,4,610,0.00799560546875,-0.017822265625,-0.0003662109375,-90.606689453125,31.25,-79.33807373046875,-83.90234375,131088,146394,9359
0,0,4,620,0.00799560546875,-0.017822265625,-0.0003662109375,-90.606689453125,31.25,-79.33807373046875,-83.90234375,131101,146401,9358
0,0,4,630,0.01031494140625,-0.01641845703125,0.00311279296875,-90.35491943359375,31.70013427734375,-80.72662353515625,-68.90234375,131118,146429,9377
0,0,4,640,0.01031494140625,-0.01318359375,0.00469970703125,-90.35491943359375,31.70013427734375,-80.72662353515625,-68.90234375,131105,146428,9347
0,0,4,650,0.01446533203125,-0.01318359375,0.00469970703125,-93.45245361328125,34.27886962890625,-78.34625244140625,-68.90234375,131192,146459,9392
0,0,4,660,0.008056640625,-0.0091552734375,-0.00653076171875,-92.193603515625,33.33282470703125,-80.75714111328125,-68.90234375,131243,146524,9389
0,0,4,670,0.008056640625,-0.0091552734375,-0.00653076171875,-92.193603515625,33.33282470703125,-80.75714111328125,-68.90234375,131289,146583,9439
0,0,4,680,0.01123046875,-0.009765625,-0.010498046875,-91.949462890625,32.989501953125,-82.02362060546875,-59.90234375,131320,146607,9438
0,0,4,690,0.01123046875,-0.009765625,-0.010498046875,-91.949462890625,32.989501953125,-82.02362060546875,-59.90234375,131339,146646,9443
0,0,4,700,0.02215576171875,-0.01129150390625,-0.015380859375,-91.37725830078125,32.44781494140625,-81.1767578125,-59.90234375,131362,146698,9455
0,0,4,710,0.02215576171875,-0.01129150390625,-0.015380859375,-91.37725830078125,32.44781494140625,-81.1767578125,-59.90234375,131346,146731,9468
0,0,4,720,0.0303955078125,-0.00970458984375,-0.01800537109375,-90.79742431640625,31.44073486328125,-77.2857666015625,-51.90234375,131367,146768,9484
0,0,4,730,0.0303955078125,-0.00970458984375,-0.01800537109375,-90.79742431640625,31.44073486328125,-77.2857666015625,-51.90234375,131352,146791,9498
0,0,4,740,0.02197265625,-0.00457763671875,-0.0181884765625,-91.217041015625,31.50177001953125,-79.4677734375,-51.90234375,131388,146836,9502
0,0,4,750,0.02197265625,-0.00457763671875,-0.0181884765625,-91.217041015625,31.50177001953125,-79.4677734375,-51.90234375,131379,146881,9510
0,0,4,760,0.02203369140625,-0.00457763671875,-0.01959228515625,-90.545654296875,31.45599365234375,-77.96478271484375,-51.90234375,131358,146906,9531
0,0,4,770,0.02203369140625,-0.00457763671875,-0.01959228515625,-90.545654296875,31.45599365234375,-77.96478271484375,-38.90234375,131376,146966,9531
0,0,4,780,0.0191650390625,0.00164794921875,-0.01824951171875,-91.13311767578125,31.54754638671875,-80.01708984375,-38.90234375,131386,147005,9556
0,0,4,790,0.02191162109375,0.00152587890625,-0.0196533203125,-91.13311767578125,31.54754638671875,-81.97021484375,-38.90234375,131411,147051,9581
0,0,4,800,0.02191162109375,0.00152587890625,-0.0196533203125,-92.52166748046875,32.08160400390625,-80.90972900390625,-38.90234375,131443,147077,9582
0,0,4,810,0.017333984375,-0.00628662109375,-0.0224609375,-89.42413330078125,28.81622314453125,-82.42034912109375,-38.90234375,131459,147135,9604
0,0,4,820,0.017333984375,-0.00628662109375,-0.0224609375,-89.42413330078125,28.81622314453125,-82.42034912109375,-25.90234375,131486,147170,9611
0,0,4,830,0.0169677734375,-0.0120849609375,-0.0086669921875,-90.78216552734375,28.99169921875,-85.6170654296875,-25.90234375,131498,147216,9624
0,0,4,840,0.0169677734375,-0.0120849609375,-0.0086669921875,-90.78216552734375,28.99169921875,-85.6170654296875,-25.90234375,131544,147283,9642
0,0,4,850,0.03863525390625,-0.0174560546875,-0.001220703125,-91.14837646484375,30.79986572265625,-79.0252685546875,-25.90234375,131560,147293,9650
0,0,4,860,0.03863525390625,-0.0174560546875,-0.001220703125,-91.14837646484375,30.79986572265625,-79.0252685546875,-16.90234375,131604,147333,9666
0,0,4,870,0.02349853515625,-0.0133056640625,0.00628662109375,-92.681884765625,33.0657958984375,-75.98876953125,-16.90234375,131618,147396,9673
0,0,4,880,0.02349853515625,-0.0133056640625,0.00628662109375,-92.681884765625,33.0657958984375,-75.98876953125,-16.90234375,131579,147432,9686
0,0,4,890,0.003173828125,-0.01422119140625,0.0030517578125,-95.26824951171875,35.80474853515625,-78.68194580078125,-16.90234375,131610,147473,9715
0,0,4,900,0.003173828125,-0.01422119140625,0.0030517578125,-95.26824951171875,35.80474853515625,-78.68194580078125,-16.90234375,131628,147304,9717
0,0,4,910,0.00604248046875,-0.0103759765625,-0.0147705078125,-93.25408935546875,34.08050537109375,-78.8726806640625,-7.90234375,131638,147353,9717
0,0,4,920,0.00604248046875,-0.0103759765625,-0.020263671875,-93.25408935546875,34.08050537109375,-78.8726806640625,-7.90234375,131682,147352,9724
0,0,4,930,0.0023193359375,-0.01385498046875,-0.020263671875,-90.58380126953125,31.08978271484375,-80.9173583984375,-7.90234375,131666,147360,9737
0,0,4,940,0.0108642578125,-0.01373291015625,-0.01495361328125,-89.8590087890625,29.083251953125,-81.573486328125,-7.90234375,131689,147359,9749
0,0,4,950,0.0108642578125,-0.01373291015625,-0.01495361328125,-89.8590087890625,29.083251953125,-81.573486328125,3.1015625,131720,147388,9772
0,0,4,960,0.01837158203125,-0.01385498046875,-0.00640869140625,-89.7979736328125,29.47998046875,-79.9713134765625,3.1015625,131722,147384,9775
0,0,4,970,0.01837158203125,-0.01385498046875,-0.00640869140625,-89.7979736328125,29.47998046875,-79.9713134765625,3.1015625,131727,147410,9794
0,0,4,980,0.0166015625,-0.012451171875,0.0009765625,-91.2933349609375,31.85272216796875,-79.78057861328125,3.1015625,131747,147382,9810
0,0,4,990,0.0166015625,-0.012451171875,0.0009765625,-91.2933349609375,31.85272216796875,-79.78057861328125,3.1015625,131750,147397,9807
0,0,5,0,0.02203369140625,-0.0086669921875,-0.00372314453125,-93.13201904296875,33.966064453125,-78.80401611328125,13.1015625,131763,147361,9837
0,0,5,10,0.02203369140625,-0.0086669921875,-0.00372314453125,-93.13201904296875,33.966064453125,-78.80401611328125,13.1015625,131762,147350,9844
0,0,5,20,0.02667236328125,-0.00518798828125,-0.0169677734375,-92.7276611328125,34.00421142578125,-79.10919189453125,13.1015625,131753,147355,9854
0,0,5,30,0.02667236328125,-0.00518798828125,-0.0169677734375,-92.7276611328125,34.00421142578125,-79.10919189453125,13.1015625,131739,147316,9864
0,0,5,40,0.02532958984375,-0.00701904296875,-0.0234375,-91.1407470703125,32.65380859375,-76.7364501953125,20.1015625,131714,147253,9865
0,0,5,50,0.02532958984375,-0.00701904296875,-0.0234375,-91.1407470703125,32.65380859375,-76.7364501953125,20.1015625,131666,147181,9878
0,0,5,60,0.00909423828125,-0.0035400390625,-0.0240478515625,-89.691162109375,30.1513671875,-79.44488525390625,20.1015625,131656,147088,9884
0,0,5,70,0.00445556640625,-0.006103515625,-0.015625,-89.691162109375,30.1513671875,-79.44488525390625,20.1015625,131613,146998,9875
0,0,5,80,0.00445556640625,-0.006103515625,-0.015625,-88.3636474609375,27.6641845703125,-81.1614990234375,20.1015625,131606,146914,9894
0,0,5,90,0.01220703125,-0.0040283203125,-6.103515625e-05,-90.4998779296875,28.69415283203125,-82.9620361328125,34.1015625,131590,146873,9890
0,0,5,100,0.01220703125,-0.0040283203125,-6.103515625e-05,-90.4998779296875,28.69415283203125,-82.9620361328125,34.1015625,131593,146826,9910
0,0,5,110,0.01837158203125,-0.0086669921875,0.009521484375,-93.66607666015625,32.4249267578125,-80.8868408203125,34.1015625,131588,146823,9920
0,0,5,120,0.01837158203125,-0.0086669921875,0.009521484375,-93.66607666015625,32.4249267578125,-80.8868408203125,34.1015625,131594,146828,9932
0,0,5,130,0.01910400390625,-0.009033203125,0.00457763671875,-94.5892333984375,34.46197509765625,-81.96258544921875,40.1015625,131581,146842,9951
0,0,5,140,0.01910400390625,-0.009033203125,0.00457763671875,-94.5892333984375,34.46197509765625,-81.96258544921875,40.1015625,131601,146904,9969
0,0,5,150,0.02703857421875,-0.01300048828125,-0.00799560546875,-92.33856201171875,33.95843505859375,-80.37567138671875,40.1015625,131612,146935,10012
0,0,5,160,0.02703857421875,-0.01300048828125,-0.00799560546875,-92.33856201171875,33.95843505859375,-80.37567138671875,40.1015625,131618,146968,10019
0,0,5,170,0.02703857421875,-0.01348876953125,-0.010986328125,-90.1031494140625,32.867431640625,-78.78875732421875,40.1015625,131603,147028,10037
0,0,5,180,0.02703857421875,-0.01348876953125,-0.010986328125,-90.1031494140625,32.867431640625,-78.78875732421875,47.1015625,131635,147078,10043
0,0,5,190,0.01837158203125,-0.0059814453125,-0.005615234375,-91.92657470703125,33.38623046875,-79.986572265625,47.1015625,131652,147121,10045
0,0,5,200,0.01837158203125,-0.0059814453125,-0.005615234375,-91.92657470703125,33.38623046875,-79.986572265625,47.1015625,131672,147177,10042
0,0,5,210,0.0150146484375,-0.00506591796875,-0.007568359375,-92.6971435546875,32.9132080078125,-82.74078369140625,47.1015625,131692,147201,10027
0,0,5,220,0.021240234375,-0.01361083984375,-0.0111083984375,-91.9647216796875,31.76116943359375,-82.37457275390625,47.1015625,131687,147219,10031
0,0,5,230,0.021240234375,-0.01361083984375,-0.0111083984375,-91.9647216796875,31.76116943359375,-82.37457275390625,57.1015625,131687,147235,10029
0,0,5,240,0.02130126953125,-0.0169677734375,-0.01141357421875,-91.30096435546875,31.25762939453125,-79.8187255859375,57.1015625,131693,147243,10025
0,0,5,250,0.02130126953125,-0.0169677734375,-0.01141357421875,-91.30096435546875,31.25762939453125,-79.8187255859375,57.1015625,131687,147274,10044
0,0,5,260,0.01458740234375,-0.017333984375,-0.008056640625,-91.17889404296875,31.07452392578125,-80.92498779296875,57.1015625,131697,147285,10039
0,0,5,270,0.01458740234375,-0.017333984375,-0.008056640625,-91.17889404296875,31.07452392578125,-80.92498779296875,61.1015625,131699,147291,10070
0,0,5,280,0.01776123046875,-0.01922607421875,-0.00537109375,-91.796875,31.83746337890625,-78.460693359375,61.1015625,131693,147308,10086
0,0,5,290,0.01776123046875,-0.01922607421875,-0.00537109375,-91.796875,31.83746337890625,-78.460693359375,61.1015625,131703,147321,10092
0,0,5,300,0.01806640625,-0.01531982421875,-0.0069580078125,-90.78216552734375,31.6009521484375,-77.65960693359375,61.1015625,131687,147293,10090
0,0,5,310,0.01806640625,-0.01531982421875,-0.0069580078125,-90.78216552734375,31.6009521484375,-77.65960693359375,61.1015625,131713,147308,10098
0,0,5,320,0.01116943359375,-0.01007080078125,-0.00408935546875,-90.32440185546875,31.31103515625,-78.28521728515625,75.1015625,131689,147297,10089
0,0,5,330,0.01116943359375,-0.01007080078125,-0.00408935546875,-90.32440185546875,31.31103515625,-78.28521728515625,75.1015625,131690,147287,10085
0,0,5,340,0.01031494140625,-0.00531005859375,-0.00146484375,-91.54510498046875,31.66961669921875,-82.366943359375,75.1015625,131682,147291,10080
0,0,5,350,0.0247802734375,-0.0107421875,-0.00189208984375,-91.54510498046875,31.66961669921875,-82.366943359375,75.1015625,131686,147282,10064
0,0,5,360,0.0247802734375,-0.0107421875,-0.00189208984375,-92.6513671875,33.60748291015625,-79.5135498046875,76.1015625,131675,147279,10084
0,0,5,370,0.02813720703125,-0.0108642578125,-0.00836181640625,-91.949462890625,33.89739990234375,-78.86505126953125,76.1015625,131663,147276,10072
0,0,5,380,0.02813720703125,-0.0108642578125,-0.00836181640625,-91.949462890625,33.89739990234375,-78.86505126953125,76.1015625,131675,147277,10076
0,0,5,390,0.02850341796875,-0.00732421875,-0.01324462890625,-90.362548828125,33.30230712890625,-78.05633544921875,76.1015625,131684,147287,10105
0,0,5,400,0.02850341796875,-0.00732421875,-0.01324462890625,-90.362548828125,33.30230712890625,-78.05633544921875,76.1015625,131683,147275,10111
0,0,5,410,0.02392578125,-0.00146484375,-0.01434326171875,-91.1712646484375,33.7982177734375,-80.3070068359375,87.1015625,131692,147306,10136
0,0,5,420,0.02392578125,-0.00146484375,-0.01434326171875,-91.1712646484375,33.7982177734375,-80.3070068359375,87.1015625,131690,147317,10153
0,0,5,430,0.022705078125,-0.00335693359375,-0.01812744140625,-90.44647216796875,32.623291015625,-80.10101318359375,87.1015625,131698,147327,10161
0,0,5,440,0.022705078125,-0.00335693359375,-0.01812744140625,-90.44647216796875,32.623291015625,-80.10101318359375,87.1015625,131699,147348,10170
0,0,5,450,0.0198974609375,-0.0009765625,-0.017333984375,-90.32440185546875,31.2347412109375,-79.01763916015625,99.1015625,131692,147339,10180
0,0,5,460,0.0198974609375,-0.0009765625,-0.017333984375,-90.32440185546875,31.2347412109375,-79.01763916015625,99.1015625,131702,147368,10207
0,0,5,470,0.0133056640625,0.00360107421875,-0.01416015625,-91.60614013671875,31.94427490234375,-80.17730712890625,99.1015625,131693,147365,10197
0,0,5,480,0.0133056640625,0.00360107421875,-0.01416015625,-91.60614013671875,31.94427490234375,-80.17730712890625,99.1015625,131697,147365,10204
0,0,5,490,0.01287841796875,0.00604248046875,-0.01507568359375,-90.24810791015625,31.463623046875,-83.18328857421875,99.1015625,131699,147380,10206
0,0,5,500,0.0208740234375,0.0003662109375,-0.012451171875,-90.24810791015625,32.7606201171875,-84.4573974609375,108.1015625,131695,147405,10215
0,0,5,510,0.0208740234375,0.0003662109375,-0.012451171875,-91.552734375,32.7606201171875,-84.4573974609375,108.1015625,131706,147409,10217
0,0,5,520,0.0308837890625,-0.0108642578125,-0.014892578125,-91.19415283203125,32.6385498046875,-80.6732177734375,108.1015625,131712,147415,10231
0,0,5,530,0.0308837890625,-0.0108642578125,-0.014892578125,-91.19415283203125,32.6385498046875,-80.6732177734375,108.1015625,131701,147448,10232
0,0,5,540,0.0233154296875,-0.0155029296875,-0.0125732421875,-90.1336669921875,31.99005126953125,-78.28521728515625,108.1015625,131737,147462,10246
0,0,5,550,0.0233154296875,-0.0155029296875,-0.0125732421875,-90.1336669921875,31.99005126953125,-78.28521728515625,111.1015625,131730,147465,10253
0,0,5,560,0.0081787109375,-0.0123291015625,-0.0054931640625,-92.88787841796875,33.91265869140625,-79.2236328125,111.1015625,131721,147488,10268
0,0,5,570,0.0081787109375,-0.0123291015625,-0.0054931640625,-92.88787841796875,33.91265869140625,-79.2236328125,111.1015625,131730,147514,10259
0,0,5,580,0.01153564453125,-0.00543212890625,-0.01214599609375,-93.20831298828125,33.98895263671875,-80.19256591796875,111.1015625,131714,147494,10279
0,0,5,590,0.01153564453125,-0.00543212890625,-0.01214599609375,-93.20831298828125,33.98895263671875,-80.19256591796875,121.1015625,131734,147531,10282
0,0,5,600,0.01629638671875,-0.0025634765625,-0.0184326171875,-93.3685302734375,33.416748046875,-81.58111572265625,121.1015625,131734,147508,10288
0,0,5,610,0.01629638671875,-0.0025634765625,-0.0184326171875,-93.3685302734375,33.416748046875,-81.58111572265625,121.1015625,131749,147520,10293
0,0,5,620,0.01806640625,-0.0084228515625,-0.02325439453125,-91.3543701171875,31.5399169921875,-79.78057861328125,121.1015625,131725,147539,10293
0,0,5,630,0.00244140625,-0.00909423828125,-0.01885986328125,-91.3543701171875,31.5399169921875,-79.78057861328125,121.1015625,131720,147532,10308
0,0,5,640,0.011474609375,-0.00909423828125,-0.01885986328125,-89.2791748046875,29.754638671875,-81.5277099609375,126.1015625,131726,147546,10306
0,0,5,650,0.0142822265625,-0.0098876953125,-0.00885009765625,-91.339111328125,31.53228759765625,-82.58056640625,126.1015625,131742,147547,10318
0,0,5,660,0.0142822265625,-0.0098876953125,-0.00885009765625,-91.339111328125,31.53228759765625,-82.58056640625,126.1015625,131735,147543,10332
0,0,5,670,0.02581787109375,-0.01251220703125,-0.00909423828125,-91.52984619140625,32.53936767578125,-80.90972900390625,126.1015625,131738,147589,10324
0,0,5,680,0.02581787109375,-0.01251220703125,-0.00909423828125,-91.52984619140625,32.53936767578125,-80.90972900390625,-119.8984375,131753,147592,10338
0,0,5,690,0.02984619140625,-0.0113525390625,-0.011962890625,-93.65081787109375,33.82110595703125,-78.2623291015625,-119.8984375,131753,147596,10341
0,0,5,700,0.02984619140625,-0.0113525390625,-0.011962890625,-93.65081787109375,33.82110595703125,-78.2623291015625,-119.8984375,131754,147580,10349
0,0,5,710,0.02789306640625,-0.0093994140625,-0.02142333984375,-91.12548828125,31.9671630859375,-77.301025390625,-119.8984375,131736,147580,10348
0,0,5,720,0.02789306640625,-0.0093994140625,-0.02142333984375,-91.12548828125,31.9671630859375,-77.301025390625,-119.8984375,131708,147506,10358
0,0,5,730,0.01611328125,-0.008056640625,-0.01800537109375,-88.3331298828125,30.20477294921875,-78.3843994140625,-112.8984375,131685,147441,10360
0,0,5,740,0.01611328125,-0.008056640625,-0.01800537109375,-88.3331298828125,30.20477294921875,-78.3843994140625,-112.8984375,131641,147380,10370
0,0,5,750,0.00860595703125,-0.004638671875,-0.00543212890625,-90.6982421875,31.6162109375,-81.27593994140625,-112.8984375,131612,147295,10362
0,0,5,760,0.00860595703125,-0.004638671875,-0.00543212890625,-90.6982421875,31.6162109375,-81.27593994140625,-112.8984375,131596,147230,10368
0,0,5,770,0.01727294921875,-0.0059814453125,-0.00433349609375,-92.35382080078125,32.52410888671875,-81.90155029296875,-111.8984375,131571,147165,10375
0,0,5,780,0.02288818359375,-0.0125732421875,-0.0079345703125,-92.35382080078125,32.52410888671875,-79.9713134765625,-111.8984375,131568,147139,10367
0,0,5,790,0.02288818359375,-0.0125732421875,-0.0079345703125,-91.1865234375,32.29522705078125,-79.9713134765625,-111.8984375,131564,147128,10378
0,0,5,800,0.0146484375,-0.01763916015625,-0.0057373046875,-92.7276611328125,34.027099609375,-79.3914794921875,-111.8984375,131567,147164,10379
0,0,5,810,0.0146484375,-0.01763916015625,-0.0057373046875,-92.7276611328125,34.027099609375,-79.3914794921875,-111.8984375,131580,147175,10387
0,0,5,820,0.01641845703125,-0.0155029296875,-0.01263427734375,-92.803955078125,34.14154052734375,-80.9478759765625,-101.8984375,131578,147199,10395
0,0,5,830,0.01641845703125,-0.0155029296875,-0.01263427734375,-92.803955078125,34.14154052734375,-80.9478759765625,-101.8984375,131582,147240,10414
0,0,5,840,0.02398681640625,-0.01324462890625,-0.02099609375,-91.46881103515625,32.38677978515625,-79.38385009765625,-101.8984375,131570,147255,10404
0,0,5,850,0.02398681640625,-0.01324462890625,-0.02099609375,-91.46881103515625,32.38677978515625,-79.38385009765625,-101.8984375,131597,147265,10417
0,0,5,860,0.02386474609375,-0.0111083984375,-0.02117919921875,-89.5233154296875,30.2734375,-78.97186279296875,-93.8984375,131583,147270,10417
0,0,5,870,0.02386474609375,-0.0111083984375,-0.02117919921875,-89.5233154296875,30.2734375,-78.97186279296875,-93.8984375,131584,147296,10441
0,0,5,880,0.02362060546875,-0.005859375,-0.01348876953125,-92.72003173828125,31.54754638671875,-79.81109619140625,-93.8984375,131583,147298,10432
0,0,5,890,0.02362060546875,-0.005859375,-0.01348876953125,-92.72003173828125,31.54754638671875,-79.81109619140625,-93.8984375,131593,147321,10434
0,0,5,900,0.0283203125,-0.0081787109375,-0.017578125,-91.9036865234375,31.6314697265625,-79.7576904296875,-93.8984375,131594,147345,10440
0,0,5,910,0.0283203125,-0.00970458984375,-0.01708984375,-91.9036865234375,31.6314697265625,-79.7576904296875,-89.8984375,131580,147334,10429
0,0,5,920,0.02703857421875,-0.00970458984375,-0.01708984375,-90.6982421875,30.98297119140625,-79.0863037109375,-89.8984375,131593,147342,10454
0,0,5,930,0.01910400390625,-0.01361083984375,-0.01129150390625,-90.23284912109375,31.01348876953125,-80.1239013671875,-89.8984375,131600,147370,10447
0,0,5,940,0.01910400390625,-0.01361083984375,-0.01129150390625,-90.23284912109375,31.01348876953125,-80.1239013671875,-89.8984375,131603,147387,10471
0,0,5,950,0.020751953125,-0.011962890625,-0.00628662109375,-92.6055908203125,32.257080078125,-78.46832275390625,-89.8984375,131586,147393,10463
0,0,5,960,0.020751953125,-0.011962890625,-0.00628662109375,-92.6055908203125,32.257080078125,-78.46832275390625,-83.8984375,131593,147397,10483
0,0,5,970,0.01568603515625,-0.0113525390625,-0.00848388671875,-92.0867919921875,32.1197509765625,-77.301025390625,-83.8984375,131581,147407,10485
0,0,5,980,0.01568603515625,-0.0113525390625,-0.00848388671875,-92.0867919921875,32.1197509765625,-77.301025390625,-83.8984375,131574,147402,10492
0,0,5,990,0.00421142578125,-0.0069580078125,-0.0087890625,-91.796875,32.2418212890625,-80.3375244140625,-83.8984375,131549,147402,10480
0,0,6,0,0.00421142578125,-0.0069580078125,-0.0087890625,-91.796875,32.2418212890625,-80.3375244140625,-73.8984375,131566,147398,10483
0,0,6,10,0.00726318359375,-0.005126953125,-0.00982666015625,-91.2933349609375,31.6619873046875,-84.77020263671875,-73.8984375,131567,147391,10489
0,0,6,20,0.00726318359375,-0.005126953125,-0.00982666015625,-91.2933349609375,31.6619873046875,-84.77020263671875,-73.8984375,131554,147385,10503
0,0,6,30,0.024169921875,-0.0111083984375,-0.00762939453125,-90.9423828125,31.4483642578125,-83.54949951171875,-73.8984375,131546,147368,10503
0,0,6,40,0.024169921875,-0.0111083984375,-0.00762939453125,-90.9423828125,31.4483642578125,-83.54949951171875,-73.8984375,131540,147347,10501
0,0,6,50,0.03265380859375,-0.01568603515625,-0.003662109375,-91.68243408203125,32.2723388671875,-79.93316650390625,-65.8984375,131511,147331,10500
0,0,6,60,0.0262451171875,-0.0166015625,-0.00347900390625,-91.68243408203125,32.2723388671875,-77.98004150390625,-65.8984375,131513,147319,10518
0,0,6,70,0.0262451171875,-0.0166015625,-0.00347900390625,-92.376708984375,33.2489013671875,-76.86614990234375,-65.8984375,131512,147338,10515
0,0,6,80,0.01593017578125,-0.0103759765625,-0.0091552734375,-91.19415283203125,32.806396484375,-79.2083740234375,-65.8984375,131527,147331,10511
0,0,6,90,0.01593017578125,-0.0103759765625,-0.0091552734375,-91.19415283203125,32.806396484375,-79.2083740234375,-61.8984375,131517,147324,10521
0,0,6,100,0.01641845703125,-0.00579833984375,-0.0103759765625,-91.05682373046875,32.8826904296875,-78.704833984375,-61.8984375,131524,147334,10534
0,0,6,110,0.01641845703125,-0.00579833984375,-0.0103759765625,-91.05682373046875,32.8826904296875,-78.704833984375,-61.8984375,131508,147343,10534
0,0,6,120,0.01605224609375,0.0013427734375,-0.0113525390625,-91.31622314453125,32.257080078125,-80.6884765625,-61.8984375,131507,147377,10546
0,0,6,130,0.01605224609375,0.0013427734375,-0.0113525390625,-91.31622314453125,32.257080078125,-80.6884765625,-61.8984375,131549,147419,10551
0,0,6,140,0.01861572265625,0.0025634765625,-0.01177978515625,-91.66717529296875,32.0892333984375,-80.95550537109375,-57.8984375,131542,147410,10558
0,0,6,150,0.01861572265625,0.0025634765625,-0.01177978515625,-91.66717529296875,32.0892333984375,-80.95550537109375,-57.8984375,131562,147450,10566
0,0,6,160,0.012939453125,-0.00323486328125,-0.01104736328125,-90.0421142578125,30.75408935546875,-81.9854736328125,-57.8984375,131547,147436,10559
0,0,6,170,0.012939453125,-0.00323486328125,-0.01104736328125,-90.0421142578125,30.75408935546875,-81.9854736328125,-57.8984375,131550,147464,10557
0,0,6,180,0.0074462890625,-0.014892578125,-0.00335693359375,-90.2099609375,31.34918212890625,-84.3505859375,-54.8984375,131541,147467,10572
0,0,6,190,0.0074462890625,-0.014892578125,-0.0008544921875,-90.2099609375,31.34918212890625,-84.3505859375,-54.8984375,131535,147491,10574
0,0,6,200,0.02197265625,-0.01898193359375,-0.0008544921875,-92.315673828125,33.966064453125,-80.81817626953125,-54.8984375,131548,147504,10573
0,0,6,210,0.0262451171875,-0.01666259765625,-0.0069580078125,-92.803955078125,34.49249267578125,-76.53045654296875,-54.8984375,131551,147469,10582
0,0,6,220,0.0262451171875,-0.01666259765625,-0.0069580078125,-92.803955078125,34.49249267578125,-76.53045654296875,-54.8984375,131535,147487,10586
0,0,6,230,0.01666259765625,-0.0086669921875,-0.012939453125,-91.80450439453125,32.87506103515625,-75.37841796875,-49.8984375,131555,147485,10589
0,0,6,240,0.01666259765625,-0.0086669921875,-0.012939453125,-91.80450439453125,32.87506103515625,-75.37841796875,-49.8984375,131551,147518,10595
0,0,6,250,0.00177001953125,0.0003662109375,-0.0123291015625,-91.5985107421875,31.74591064453125,-80.86395263671875,-49.8984375,131543,147547,10593
0,0,6,260,0.00177001953125,0.0003662109375,-0.0123291015625,-91.5985107421875,31.74591064453125,-80.86395263671875,-49.8984375,131566,147553,10604
0,0,6,270,0.0081787109375,-0.00592041015625,-0.01165771484375,-92.132568359375,31.13555908203125,-82.733154296875,-49.8984375,131574,147543,10621
0,0,6,280,0.0081787109375,-0.00592041015625,-0.01165771484375,-92.132568359375,31.13555908203125,-82.733154296875,-39.8984375,131571,147565,10617
0,0,6,290,0.01898193359375,-0.0208740234375,-0.01080322265625,-90.4388427734375,30.31158447265625,-79.38385009765625,-39.8984375,131557,147560,10616
0,0,6,300,0.01898193359375,-0.0208740234375,-0.01080322265625,-90.4388427734375,30.31158447265625,-79.38385009765625,-39.8984375,131568,147584,10630
0,0,6,310,0.0107421875,-0.02099609375,-0.00274658203125,-91.7510986328125,31.6162109375,-78.11737060546875,-39.8984375,131576,147589,10639
0,0,6,320,0.0107421875,-0.02099609375,-0.00274658203125,-91.7510986328125,31.6162109375,-78.11737060546875,-37.8984375,131587,147622,10637
0,0,6,330,0.0103759765625,-0.01275634765625,-0.002685546875,-90.9271240234375,31.70013427734375,-81.09283447265625,-37.8984375,131602,147647,10643
0,0,6,340,0.02178955078125,-0.01422119140625,-0.002197265625,-90.9271240234375,31.70013427734375,-81.09283447265625,-37.8984375,131604,147643,10645
0,0,6,350,0.02178955078125,-0.01422119140625,-0.002197265625,-90.9271240234375,33.0963134765625,-81.0089111328125,-37.8984375,131608,147658,10656
0,0,6,360,0.03582763671875,-0.011474609375,-0.0047607421875,-91.92657470703125,34.38568115234375,-79.39910888671875,-37.8984375,131592,147663,10661
0,0,6,370,0.03582763671875,-0.011474609375,-0.0047607421875,-91.92657470703125,34.38568115234375,-79.39910888671875,-28.8984375,131603,147662,10663
0,0,6,380,0.04058837890625,-0.00726318359375,-0.01177978515625,-93.017578125,34.73663330078125,-75.9429931640625,-28.8984375,131589,147677,10670
0,0,6,390,0.04058837890625,-0.00726318359375,-0.01177978515625,-93.017578125,34.73663330078125,-75.9429931640625,-28.8984375,131597,147646,10668
0,0,6,400,0.02960205078125,0.00115966796875,-0.01947021484375,-90.55328369140625,32.06634521484375,-77.6214599609375,-28.8984375,131580,147652,10685
0,0,6,410,0.02960205078125,0.00115966796875,-0.01947021484375,-90.55328369140625,32.06634521484375,-77.6214599609375,-24.8984375,131572,147592,10678
0,0,6,420,0.0186767578125,0.0050048828125,-0.01690673828125,-90.8050537109375,31.63909912109375,-80.657958984375,-24.8984375,131549,147527,10676
0,0,6,430,0.0186767578125,0.0050048828125,-0.01690673828125,-90.8050537109375,31.63909912109375,-80.657958984375,-24.8984375,131534,147474,10681
0,0,6,440,0.01605224609375,0.00250244140625,-0.01409912109375,-89.56146240234375,30.87615966796875,-84.08355712890625,-24.8984375,131487,147411,10683
0,0,6,450,0.01605224609375,0.00250244140625,-0.01409912109375,-89.56146240234375,30.87615966796875,-84.08355712890625,-24.8984375,131466,147349,10680
0,0,6,460,0.02276611328125,-0.00494384765625,-0.00701904296875,-90.73638916015625,31.6009521484375,-83.88519287109375,-22.8984375,131469,147316,10678
0,0,6,470,0.02276611328125,-0.00494384765625,-0.00701904296875,-90.73638916015625,31.6009521484375,-83.88519287109375,-22.8984375,131439,147281,10676
0,0,6,480,0.02935791015625,-0.01641845703125,-0.00439453125,-91.16363525390625,32.23419189453125,-80.3985595703125,-22.8984375,131441,147267,10687
0,0,6,490,0.02239990234375,-0.01873779296875,-0.00286865234375,-91.31622314453125,33.050537109375,-77.46124267578125,-22.8984375,131450,147280,10683
0,0,6,500,0.02239990234375,-0.01873779296875,-0.00286865234375,-91.31622314453125,33.050537109375,-77.46124267578125,-16.8984375,131445,147315,10701
0,0,6,510,0.01116943359375,-0.0087890625,-0.00286865234375,-91.8121337890625,33.75244140625,-81.0394287109375,-16.8984375,131450,147315,10696
0,0,6,520,0.01116943359375,-0.0087890625,-0.00286865234375,-91.8121337890625,33.75244140625,-81.0394287109375,-16.8984375,131444,147345,10695
0,0,6,530,0.0162353515625,-0.009521484375,-0.00634765625,-92.41485595703125,34.64508056640625,-81.77947998046875,-16.8984375,131438,147343,10700
0,0,6,540,0.0162353515625,-0.009521484375,-0.00634765625,-92.41485595703125,34.64508056640625,-81.77947998046875,-16.8984375,131457,147355,10706
0,0,6,550,0.0274658203125,-0.00958251953125,-0.0145263671875,-90.95001220703125,33.62274169921875,-81.29119873046875,-12.8984375,131456,147395,10707
0,0,6,560,0.0274658203125,-0.00958251953125,-0.0145263671875,-90.95001220703125,33.62274169921875,-81.29119873046875,-12.8984375,131467,147408,10697
0,0,6,570,0.02978515625,-0.0107421875,-0.0142822265625,-91.85028076171875,33.5693359375,-78.094482421875,-12.8984375,131457,147423,10719
0,0,6,580,0.02978515625,-0.0107421875,-0.0142822265625,-91.85028076171875,33.5693359375,-78.094482421875,-12.8984375,131466,147422,10739
0,0,6,590,0.013916015625,-0.01007080078125,-0.01544189453125,-91.56036376953125,32.18841552734375,-79.864501953125,-2.8984375,131460,147433,10720
0,0,6,600,0.013916015625,-0.01007080078125,-0.01544189453125,-91.56036376953125,32.18841552734375,-79.864501953125,-2.8984375,131465,147435,10728
0,0,6,610,0.00518798828125,-0.01422119140625,-0.0126953125,-90.81268310546875,31.37969970703125,-81.00128173828125,-2.8984375,131460,147485,10738
0,0,6,620,0.010986328125,-0.01092529296875,-0.01007080078125,-90.81268310546875,31.37969970703125,-81.00128173828125,-2.8984375,131461,147486,10729
0,0,6,630,0.010986328125,-0.01092529296875,-0.01007080078125,-91.217041015625,31.6162109375,-83.5418701171875,-2.8984375,131489,147508,10736
0,0,6,640,0.02655029296875,-0.014404296875,-0.00933837890625,-91.5679931640625,32.40966796875,-79.8492431640625,-0.8984375,131488,147512,10744
0,0,6,650,0.02655029296875,-0.014404296875,-0.00933837890625,-91.5679931640625,32.40966796875,-79.8492431640625,-0.8984375,131486,147521,10751
0,0,6,660,0.02783203125,-0.01190185546875,-0.01141357421875,-92.73529052734375,33.34808349609375,-77.9876708984375,-0.8984375,131491,147538,10754
0,0,6,670,0.02783203125,-0.01190185546875,-0.01141357421875,-92.73529052734375,33.34808349609375,-77.9876708984375,-0.8984375,131480,147509,10757
0,0,6,680,0.02484130859375,-0.00823974609375,-0.01751708984375,-90.66009521484375,31.95953369140625,-78.95660400390625,-0.8984375,131479,147506,10754
0,0,6,690,0.02484130859375,-0.00823974609375,-0.01751708984375,-90.66009521484375,31.95953369140625,-78.95660400390625,5.10546875,131470,147498,10775
0,0,6,700,0.02130126953125,-0.00653076171875,-0.01336669921875,-90.46173095703125,31.85272216796875,-79.681396484375,5.10546875,131450,147503,10762
0,0,6,710,0.02130126953125,-0.00653076171875,-0.01336669921875,-90.46173095703125,31.85272216796875,-79.681396484375,5.10546875,131450,147492,10760
0,0,6,720,0.017333984375,-0.0103759765625,-0.00885009765625,-91.91131591796875,32.87506103515625,-81.67266845703125,5.10546875,131455,147466,10762
0,0,6,730,0.017333984375,-0.0103759765625,-0.00885009765625,-91.91131591796875,32.87506103515625,-81.67266845703125,10.10546875,131446,147466,10762
0,0,6,740,0.02398681640625,-0.01263427734375,-0.01080322265625,-91.0797119140625,32.84454345703125,-78.1402587890625,10.10546875,131442,147476,10777
0,0,6,750,0.02398681640625,-0.01263427734375,-0.01080322265625,-91.0797119140625,32.84454345703125,-78.1402587890625,10.10546875,131440,147460,10765
0,0,6,760,0.01678466796875,-0.00994873046875,-0.0103759765625,-90.4083251953125,33.10394287109375,-79.06341552734375,10.10546875,131447,147471,10777
0,0,6,770,0.01568603515625,-0.00262451171875,-0.00933837890625,-90.4083251953125,33.95843505859375,-81.3446044921875,10.10546875,131449,147469,10781
0,0,6,780,0.01568603515625,-0.00262451171875,-0.00933837890625,-91.9189453125,33.95843505859375,-81.3446044921875,15.10546875,131457,147493,10791
0,0,6,790,0.0234375,-0.00335693359375,-0.01495361328125,-92.01812744140625,33.45489501953125,-81.94732666015625,15.10546875,131441,147483,10781
0,0,6,800,0.0234375,-0.00335693359375,-0.01495361328125,-92.01812744140625,33.45489501953125,-81.94732666015625,15.10546875,131447,147498,10783
0,0,6,810,0.02899169921875,-0.0096435546875,-0.0196533203125,-89.71405029296875,31.25762939453125,-79.21600341796875,15.10546875,131441,147520,10784
0,0,6,820,0.02899169921875,-0.0096435546875,-0.0196533203125,-89.71405029296875,31.25762939453125,-79.21600341796875,19.10546875,131450,147524,10796
0,0,6,830,0.02001953125,-0.0115966796875,-0.01287841796875,-90.27099609375,31.47125244140625,-77.58331298828125,19.10546875,131455,147528,10801
0,0,6,840,0.02001953125,-0.0115966796875,-0.01287841796875,-90.27099609375,31.47125244140625,-77.58331298828125,19.10546875,131455,147539,10798
0,0,6,850,0.01226806640625,-0.0052490234375,-0.00970458984375,-92.3309326171875,32.61566162109375,-80.55877685546875,19.10546875,131463,147553,10802
0,0,6,860,0.01226806640625,-0.0052490234375,-0.00970458984375,-92.3309326171875,32.61566162109375,-80.55877685546875,19.10546875,131481,147561,10803
0,0,6,870,0.01239013671875,-0.0064697265625,-0.01116943359375,-91.74346923828125,32.562255859375,-80.841064453125,26.10546875,131475,147573,10814
0,0,6,880,0.01239013671875,-0.0064697265625,-0.01116943359375,-91.74346923828125,32.562255859375,-80.841064453125,26.10546875,131498,147578,10805
0,0,6,890,0.01007080078125,-0.00408935546875,-0.009521484375,-90.79742431640625,32.28759765625,-81.756591796875,26.10546875,131498,147569,10815
0,0,6,900,0.01007080078125,-0.00189208984375,-0.006591796875,-90.79742431640625,32.28759765625,-81.756591796875,26.10546875,131514,147578,10824
0,0,6,910,0.0130615234375,-0.00189208984375,-0.006591796875,-92.5140380859375,32.79876708984375,-83.6029052734375,29.10546875,131519,147589,10832
0,0,6,920,0.02447509765625,-0.00897216796875,-0.00897216796875,-92.53692626953125,32.56988525390625,-82.0159912109375,29.10546875,131498,147616,10830
0,0,6,930,0.02447509765625,-0.00897216796875,-0.00897216796875,-92.53692626953125,32.56988525390625,-82.0159912109375,29.10546875,131512,147610,10838
0,0,6,940,0.03070068359375,-0.01287841796875,-0.01153564453125,-92.254638671875,31.99005126953125,-79.47540283203125,29.10546875,131522,147629,10824
0,0,6,950,0.03070068359375,-0.01287841796875,-0.01153564453125,-92.254638671875,31.99005126953125,-79.47540283203125,29.10546875,131529,147638,10821
0,0,6,960,0.02679443359375,-0.013427734375,-0.01025390625,-90.850830078125,31.44073486328125,-77.52227783203125,28.10546875,131468,147634,10840
0,0,6,970,0.02679443359375,-0.013427734375,-0.01025390625,-90.850830078125,31.44073486328125,-77.52227783203125,28.10546875,131452,147634,10831
0,0,6,980,0.018310546875,-0.00872802734375,-0.00531005859375,-91.80450439453125,32.27996826171875,-78.62091064453125,28.10546875,131436,147638,10850
0,0,6,990,0.018310546875,-0.00872802734375,-0.00531005859375,-91.80450439453125,32.27996826171875,-78.62091064453125,28.10546875,131429,147643,10843
0,0,7,0,0.0107421875,-0.0147705078125,-0.00537109375,-91.45355224609375,32.52410888671875,-79.5745849609375,28.10546875,131403,147666,10851
0,0,7,10,0.0107421875,-0.0147705078125,-0.00537109375,-91.45355224609375,32.52410888671875,-79.5745849609375,37.10546875,131400,147638,10846
0,0,7,20,0.01702880859375,-0.01080322265625,-0.007080078125,-91.2933349609375,32.1197509765625,-79.99420166015625,37.10546875,131397,147652,10851
0,0,7,30,0.01702880859375,-0.01080322265625,-0.007080078125,-91.2933349609375,32.1197509765625,-79.99420166015625,37.10546875,131400,147647,10850
0,0,7,40,0.01934814453125,-0.01373291015625,-0.00634765625,-90.82794189453125,32.1807861328125,-79.46014404296875,37.10546875,131388,147653,10854
0,0,7,50,0.01751708984375,-0.01080322265625,-0.00360107421875,-90.82794189453125,32.1807861328125,-80.63507080078125,42.10546875,131384,147674,10856
0,0,7,60,0.01751708984375,-0.01080322265625,-0.00360107421875,-90.4693603515625,32.6385498046875,-80.63507080078125,42.10546875,131391,147675,10861
0,0,7,70,0.02130126953125,-0.00927734375,-0.00152587890625,-91.522216796875,34.01947021484375,-79.742431640625,42.10546875,131377,147686,10880
0,0,7,80,0.02130126953125,-0.00927734375,-0.00152587890625,-91.522216796875,34.01947021484375,-79.742431640625,42.10546875,131362,147686,10874
0,0,7,90,0.02191162109375,-0.0076904296875,-0.0068359375,-92.81158447265625,34.942626953125,-80.26885986328125,42.10546875,131351,147683,10865
0,0,7,100,0.02191162109375,-0.0076904296875,-0.0068359375,-92.81158447265625,34.942626953125,-80.26885986328125,48.10546875,131320,147650,10866
0,0,7,110,0.027099609375,-0.00775146484375,-0.0167236328125,-90.88897705078125,32.89031982421875,-79.85687255859375,48.10546875,131305,147638,10883
0,0,7,120,0.027099609375,-0.00775146484375,-0.0167236328125,-90.88897705078125,32.89031982421875,-79.85687255859375,48.10546875,131278,147562,10875
0,0,7,130,0.02410888671875,-0.0125732421875,-0.01580810546875,-90.27099609375,31.82220458984375,-78.83453369140625,48.10546875,131251,147497,10871
0,0,7,140,0.02410888671875,-0.0125732421875,-0.01580810546875,-90.27099609375,31.82220458984375,-78.83453369140625,55.10546875,131218,147436,10878
0,0,7,150,0.01837158203125,-0.0078125,-0.0123291015625,-90.8355712890625,31.70013427734375,-79.06341552734375,55.10546875,131188,147397,10883
0,0,7,160,0.01837158203125,-0.0078125,-0.0123291015625,-90.8355712890625,31.70013427734375,-79.06341552734375,55.10546875,131199,147339,10871
0,0,7,170,0.01629638671875,-0.005126953125,-0.00982666015625,-90.32440185546875,31.829833984375,-79.47540283203125,55.10546875,131175,147309,10877
0,0,7,180,0.01629638671875,-0.005126953125,-0.00714111328125,-90.32440185546875,31.829833984375,-79.47540283203125,55.10546875,131173,147277,10884
0,0,7,190,0.01507568359375,-0.006591796875,-0.00714111328125,-91.7816162109375,33.172607421875,-81.2835693359375,58.10546875,131171,147279,10880
0,0,7,200,0.0220947265625,-0.0084228515625,-0.0101318359375,-91.1712646484375,33.3709716796875,-80.5511474609375,58.10546875,131169,147236,10878
0,0,7,210,0.0220947265625,-0.0084228515625,-0.0101318359375,-91.1712646484375,33.3709716796875,-80.5511474609375,58.10546875,131184,147210,10877
0,0,7,220,0.0252685546875,-0.00726318359375,-0.00897216796875,-91.19415283203125,33.1573486328125,-79.7576904296875,58.10546875,131193,147265,10891
0,0,7,230,0.0252685546875,-0.00726318359375,-0.00897216796875,-91.19415283203125,33.1573486328125,-79.7576904296875,59.10546875,131187,147267,10888
0,0,7,240,0.026123046875,-0.00677490234375,-0.00787353515625,-92.5140380859375,34.27886962890625,-79.24652099609375,59.10546875,131194,147245,10893
0,0,7,250,0.026123046875,-0.00677490234375,-0.00787353515625,-92.5140380859375,34.27886962890625,-79.24652099609375,59.10546875,131219,147251,10880
0,0,7,260,0.02606201171875,-0.00537109375,-0.0126953125,-92.3309326171875,34.30938720703125,-78.2470703125,59.10546875,131203,147289,10898
0,0,7,270,0.02606201171875,-0.00537109375,-0.0126953125,-92.3309326171875,34.30938720703125,-78.2470703125,59.10546875,131214,147301,10893
0,0,7,280,0.015625,-0.0037841796875,-0.0159912109375,-90.75164794921875,32.49359130859375,-80.07049560546875,67.10546875,131228,147308,10911
0,0,7,290,0.015625,-0.0037841796875,-0.0159912109375,-90.75164794921875,32.49359130859375,-80.07049560546875,67.10546875,131207,147308,10903
0,0,7,300,0.0120849609375,-0.0057373046875,-0.01312255859375,-91.05682373046875,32.03582763671875,-83.36639404296875,67.10546875,131203,147323,10910
0,0,7,310,0.0120849609375,-0.0057373046875,-0.01312255859375,-91.05682373046875,32.03582763671875,-83.36639404296875,67.10546875,131209,147313,10897
0,0,7,320,0.02142333984375,-0.00927734375,-0.011962890625,-92.09442138671875,32.470703125,-82.08465576171875,70.10546875,131218,147328,10912
0,0,7,330,0.01922607421875,-0.01385498046875,-0.01239013671875,-92.09442138671875,32.470703125,-80.13153076171875,70.10546875,131217,147321,10908
0,0,7,340,0.01922607421875,-0.01385498046875,-0.01239013671875,-90.61431884765625,31.76116943359375,-80.81817626953125,70.10546875,131209,147324,10905
0,0,7,350,0.015625,-0.0177001953125,-0.0079345703125,-91.6595458984375,32.9132080078125,-80.9173583984375,70.10546875,131207,147303,10933
0,0,7,360,0.015625,-0.0177001953125,-0.0079345703125,-91.6595458984375,32.9132080078125,-80.9173583984375,70.10546875,131209,147308,10916
0,0,7,370,0.0220947265625,-0.0169677734375,-0.01025390625,-91.27044677734375,33.07342529296875,-79.70428466796875,73.10546875,131227,147309,10943
0,0,7,380,0.0220947265625,-0.0169677734375,-0.01025390625,-91.27044677734375,33.07342529296875,-79.70428466796875,73.10546875,131210,147306,10953
0,0,7,390,0.02105712890625,-0.0152587890625,-0.009765625,-90.8966064453125,32.8216552734375,-77.30865478515625,73.10546875,131204,147324,10969
0,0,7,400,0.02105712890625,-0.0152587890625,-0.009765625,-90.8966064453125,32.8216552734375,-77.30865478515625,73.10546875,131210,147339,10989
0,0,7,410,0.01251220703125,-0.01031494140625,-0.00927734375,-91.20941162109375,32.7301025390625,-78.7353515625,73.10546875,131207,147364,10989
0,0,7,420,0.01251220703125,-0.01031494140625,-0.00927734375,-91.20941162109375,32.7301025390625,-78.7353515625,77.10546875,131204,147365,10993
0,0,7,430,0.0098876953125,-0.008544921875,-0.00982666015625,-91.60614013671875,32.96661376953125,-80.71136474609375,77.10546875,131188,147354,10990
0,0,7,440,0.0098876953125,-0.008544921875,-0.00982666015625,-91.60614013671875,32.96661376953125,-80.71136474609375,77.10546875,131162,147355,10968
0,0,7,450,0.01715087890625,-0.00933837890625,-0.01104736328125,-91.14837646484375,32.77587890625,-81.6497802734375,77.10546875,131172,147347,10964
0,0,7,460,0.01715087890625,-0.00933837890625,-0.01123046875,-91.14837646484375,32.77587890625,-81.6497802734375,83.10546875,131169,147340,10949
0,0,7,470,0.0257568359375,-0.00885009765625,-0.01123046875,-91.73583984375,33.24127197265625,-78.49884033203125,83.10546875,131158,147371,10955
0,0,7,480,0.01953125,-0.006103515625,-0.01507568359375,-91.30096435546875,32.85980224609375,-78.72772216796875,83.10546875,131151,147344,10941
0,0,7,490,0.01953125,-0.006103515625,-0.01507568359375,-91.30096435546875,32.85980224609375,-78.72772216796875,83.10546875,131157,147372,10911
0,0,7,500,0.0135498046875,-0.0037841796875,-0.0145263671875,-90.18707275390625,31.8145751953125,-82.42034912109375,83.10546875,131167,147368,10936
0,0,7,510,0.0135498046875,-0.0037841796875,-0.0145263671875,-90.18707275390625,31.8145751953125,-82.42034912109375,84.10546875,131151,147387,10949
0,0,7,520,0.01654052734375,-0.0113525390625,-0.009033203125,-90.4388427734375,32.135009765625,-84.51080322265625,84.10546875,131159,147384,10935
0,0,7,530,0.01654052734375,-0.0113525390625,-0.009033203125,-90.4388427734375,32.135009765625,-84.51080322265625,84.10546875,131134,147379,10954
0,0,7,540,0.03082275390625,-0.01568603515625,-0.00738525390625,-91.8731689453125,33.42437744140625,-80.902099609375,84.10546875,131135,147390,10961
0,0,7,550,0.03082275390625,-0.01568603515625,-0.00738525390625,-91.8731689453125,33.42437744140625,-80.902099609375,88.10546875,131161,147418,10937
0,0,7,560,0.03350830078125,-0.016357421875,-0.0120849609375,-91.81976318359375,33.68377685546875,-76.07269287109375,88.10546875,131153,147426,10959
0,0,7,570,0.03350830078125,-0.016357421875,-0.0120849609375,-91.81976318359375,33.68377685546875,-76.07269287109375,88.10546875,131158,147420,10939
0,0,7,580,0.0184326171875,-0.0120849609375,-0.0157470703125,-90.51513671875,32.92083740234375,-77.73590087890625,88.10546875,131152,147419,10942
0,0,7,590,0.0184326171875,-0.0120849609375,-0.0157470703125,-90.51513671875,32.92083740234375,-77.73590087890625,88.10546875,131145,147446,10925
0,0,7,600,0.0108642578125,-0.00665283203125,-0.0137939453125,-91.61376953125,33.7982177734375,-79.04815673828125,91.10546875,131151,147446,10904
0,0,7,610,0.0108642578125,-0.000244140625,-0.01483154296875,-91.61376953125,33.7982177734375,-79.04815673828125,91.10546875,131140,147428,10898
0,0,7,620,0.0108642578125,-0.000244140625,-0.01483154296875,-90.72113037109375,32.27996826171875,-81.67266845703125,91.10546875,131127,147437,10893
0,0,7,630,0.0184326171875,0.0010986328125,-0.01116943359375,-91.2628173828125,32.17315673828125,-81.19964599609375,91.10546875,131122,147422,10885
0,0,7,640,0.0184326171875,0.0010986328125,-0.01116943359375,-91.2628173828125,32.17315673828125,-81.19964599609375,93.10546875,131117,147430,10920
0,0,7,650,0.021484375,-0.0001220703125,-0.00982666015625,-91.19415283203125,32.073974609375,-81.1767578125,93.10546875,131102,147411,10921
0,0,7,660,0.021484375,-0.0001220703125,-0.00982666015625,-91.19415283203125,32.073974609375,-81.1767578125,93.10546875,131123,147423,10919
0,0,7,670,0.02197265625,-0.00299072265625,-0.00701904296875,-90.69061279296875,31.63909912109375,-81.3751220703125,93.10546875,131104,147446,10936
0,0,7,680,0.02197265625,-0.00299072265625,-0.00701904296875,-90.69061279296875,31.63909912109375,-81.3751220703125,93.10546875,131126,147481,10946
0,0,7,690,0.024169921875,-0.00537109375,-0.00115966796875,-91.94183349609375,32.81402587890625,-80.841064453125,99.10546875,131141,147508,10946
0,0,7,700,0.024169921875,-0.00537109375,-0.00115966796875,-91.94183349609375,32.81402587890625,-80.841064453125,99.10546875,131154,147494,10960
0,0,7,710,0.02740478515625,-0.00885009765625,-0.00274658203125,-92.4530029296875,33.88214111328125,-78.59039306640625,99.10546875,131140,147513,10970
0,0,7,720,0.02740478515625,-0.00885009765625,-0.00274658203125,-92.4530029296875,33.88214111328125,-78.59039306640625,99.10546875,131142,147514,10976
0,0,7,730,0.01904296875,-0.00848388671875,-0.0064697265625,-91.85791015625,33.40911865234375,-77.45361328125,99.10546875,131144,147523,10981
0,0,7,740,0.01904296875,-0.00848388671875,-0.0064697265625,-91.85791015625,33.40911865234375,-77.45361328125,106.10546875,131148,147521,10986
0,0,7,750,0.0069580078125,-0.01153564453125,-0.0076904296875,-91.75872802734375,33.14208984375,-79.65087890625,106.10546875,131151,147528,10983
0,0,7,760,0.00811767578125,-0.01123046875,-0.0096435546875,-91.5069580078125,32.65380859375,-81.72607421875,106.10546875,131143,147532,10982
0,0,7,770,0.00811767578125,-0.01123046875,-0.0096435546875,-91.5069580078125,32.65380859375,-81.72607421875,106.10546875,131160,147539,10972
0,0,7,780,0.01513671875,-0.0130615234375,-0.00909423828125,-90.03448486328125,31.76116943359375,-81.33697509765625,107.10546875,131129,147522,10972
0,0,7,790,0.01513671875,-0.0130615234375,-0.00909423828125,-90.03448486328125,31.76116943359375,-81.33697509765625,107.10546875,131130,147542,10987
0,0,7,800,0.021240234375,-0.01348876953125,-0.00433349609375,-90.35491943359375,31.68487548828125,-81.6802978515625,107.10546875,131150,147557,10975
0,0,7,810,0.021240234375,-0.01348876953125,-0.00433349609375,-90.35491943359375,31.68487548828125,-81.6802978515625,107.10546875,131154,147572,10977
0,0,7,820,0.03118896484375,-0.01593017578125,-0.00152587890625,-91.19415283203125,32.79876708984375,-79.5745849609375,107.10546875,131150,147590,10990
0,0,7,830,0.03118896484375,-0.01593017578125,-0.00152587890625,-91.19415283203125,32.79876708984375,-79.5745849609375,115.10546875,131148,147591,10999
0,0,7,840,0.02984619140625,-0.01580810546875,-0.0035400390625,-91.57562255859375,34.04998779296875,-76.94244384765625,115.10546875,131161,147591,11004
0,0,7,850,0.02984619140625,-0.01580810546875,-0.0035400390625,-91.57562255859375,34.04998779296875,-76.94244384765625,115.10546875,131138,147603,11006
0,0,7,860,0.0242919921875,-0.00811767578125,-0.00775146484375,-91.30859375,34.33990478515625,-78.48358154296875,115.10546875,131147,147599,11002
0,0,7,870,0.0242919921875,-0.00811767578125,-0.00775146484375,-91.30859375,34.33990478515625,-78.48358154296875,118.10546875,131141,147592,11003
0,0,7,880,0.0242919921875,-0.00390625,-0.01092529296875,-91.522216796875,34.46197509765625,-78.125,118.10546875,131125,147565,11005
0,0,7,890,0.0208740234375,-0.0018310546875,-0.01507568359375,-91.522216796875,34.46197509765625,-78.125,118.10546875,131122,147529,11000
0,0,7,900,0.0208740234375,-0.0018310546875,-0.01507568359375,-90.3167724609375,32.78350830078125,-79.52880859375,118.10546875,131087,147457,11008
0,0,7,910,0.01678466796875,-0.0028076171875,-0.01104736328125,-89.36309814453125,31.585693359375,-80.87158203125,118.10546875,131056,147393,11006
0,0,7,920,0.01678466796875,-0.0028076171875,-0.01104736328125,-89.36309814453125,31.585693359375,-80.87158203125,120.10546875,131049,147326,10994
0,0,7,930,0.01824951171875,-0.00311279296875,-0.00384521484375,-90.78216552734375,32.78350830078125,-81.73370361328125,120.10546875,131024,147279,10991
0,0,7,940,0.01824951171875,-0.00311279296875,-0.00384521484375,-90.78216552734375,32.78350830078125,-81.73370361328125,120.10546875,131003,147223,11011
0,0,7,950,0.0240478515625,-0.00555419921875,-0.00433349609375,-91.66717529296875,34.08050537109375,-80.841064453125,120.10546875,130989,147174,10999
0,0,7,960,0.0240478515625,-0.00555419921875,-0.00433349609375,-91.66717529296875,34.08050537109375,-80.841064453125,122.10546875,130980,147187,11005
0,0,7,970,0.0245361328125,-0.00616455078125,-0.0068359375,-90.18707275390625,33.71429443359375,-80.01708984375,122.10546875,131000,147203,11008
0,0,7,980,0.0245361328125,-0.00616455078125,-0.0068359375,-90.18707275390625,33.71429443359375,-80.01708984375,122.10546875,130998,147237,10992
0,0,7,990,0.02630615234375,-0.00421142578125,-0.0064697265625,-91.4306640625,34.2559814453125,-78.765869140625,122.10546875,131014,147284,11028
0,0,8,0,0.02630615234375,-0.00421142578125,-0.0064697265625,-91.4306640625,34.2559814453125,-78.765869140625,122.10546875,131014,147296,11017
0,0,8,10,0.02288818359375,-0.002197265625,-0.01043701171875,-92.34619140625,34.38568115234375,-79.64324951171875,127.10546875,131036,147316,11016
0,0,8,20,0.02288818359375,-0.002197265625,-0.01043701171875,-92.34619140625,34.38568115234375,-79.64324951171875,127.10546875,131027,147347,11026
0,0,8,30,0.0186767578125,-0.0029296875,-0.014892578125,-90.20233154296875,32.3333740234375,-80.61981201171875,127.10546875,131032,147369,11015
0,0,8,40,0.017822265625,-0.00372314453125,-0.0103759765625,-90.20233154296875,32.3333740234375,-82.0159912109375,127.10546875,131058,147401,11025
0,0,8,50,0.017822265625,-0.00372314453125,-0.0103759765625,-90.21759033203125,31.76116943359375,-82.0159912109375,-127.89453125,131054,147416,11016
0,0,8,60,0.0234375,-0.00518798828125,-0.006103515625,-91.7510986328125,32.8369140625,-81.80999755859375,-127.89453125,131051,147428,11026
0,0,8,70,0.0234375,-0.00518798828125,-0.006103515625,-91.7510986328125,32.8369140625,-81.80999755859375,-127.89453125,131056,147444,11038
0,0,8,80,0.02789306640625,-0.01104736328125,-0.00738525390625,-91.7205810546875,33.54644775390625,-80.0018310546875,-127.89453125,131047,147449,11035
0,0,8,90,0.02789306640625,-0.01104736328125,-0.00738525390625,-91.7205810546875,33.54644775390625,-80.0018310546875,-127.89453125,131063,147460,11028
0,0,8,100,0.0208740234375,-0.012451171875,-0.00830078125,-91.08734130859375,33.5540771484375,-77.61383056640625,-121.89453125,131073,147460,11037
0,0,8,110,0.0208740234375,-0.012451171875,-0.00830078125,-91.08734130859375,33.5540771484375,-77.61383056640625,-121.89453125,131058,147490,11034
0,0,8,120,0.0087890625,-0.00982666015625,-0.00732421875,-89.7369384765625,32.6690673828125,-80.75714111328125,-121.89453125,131063,147493,11045
0,0,8,130,0.0087890625,-0.00982666015625,-0.00732421875,-89.7369384765625,32.6690673828125,-80.75714111328125,-121.89453125,131063,147500,11040
0,0,8,140,0.01312255859375,-0.00823974609375,-0.0037841796875,-90.88134765625,33.42437744140625,-83.099365234375,-121.89453125,131077,147526,11045
0,0,8,150,0.01312255859375,-0.00823974609375,-0.0037841796875,-90.88134765625,33.42437744140625,-83.099365234375,-122.89453125,131078,147515,11062
0,0,8,160,0.02587890625,-0.0111083984375,-0.00457763671875,-90.33203125,33.5235595703125,-80.68084716796875,-122.89453125,131071,147523,11051
0,0,8,170,0.02587890625,-0.00811767578125,-0.0037841796875,-90.33203125,33.5235595703125,-80.68084716796875,-122.89453125,131069,147522,11049
0,0,8,180,0.0245361328125,-0.00811767578125,-0.0037841796875,-91.97998046875,35.1104736328125,-78.2623291015625,-122.89453125,131053,147493,11060
0,0,8,190,0.01776123046875,-0.0048828125,-0.01043701171875,-92.5750732421875,35.19439697265625,-79.9713134765625,-117.89453125,131036,147487,11058
0,0,8,200,0.01776123046875,-0.0048828125,-0.01043701171875,-92.5750732421875,35.19439697265625,-79.9713134765625,-117.89453125,131038,147486,11050
0,0,8,210,0.01861572265625,-0.00579833984375,-0.01904296875,-90.88134765625,33.68377685546875,-81.54296875,-117.89453125,131051,147483,11069
0,0,8,220,0.01861572265625,-0.00579833984375,-0.01904296875,-90.88134765625,33.68377685546875,-81.54296875,-117.89453125,131049,147510,11086
0,0,8,230,0.02459716796875,-0.010009765625,-0.02008056640625,-89.19525146484375,31.88323974609375,-80.43670654296875,-117.89453125,131050,147514,11062
0,0,8,240,0.02459716796875,-0.010009765625,-0.02008056640625,-89.19525146484375,31.88323974609375,-80.43670654296875,-117.89453125,131049,147533,11070
0,0,8,250,0.024658203125,-0.00714111328125,-0.01318359375,-90.84320068359375,32.3028564453125,-79.9407958984375,-117.89453125,131070,147539,11075
0,0,8,260,0.024658203125,-0.00714111328125,-0.01318359375,-90.84320068359375,32.3028564453125,-79.9407958984375,-117.89453125,131064,147540,11063
0,0,8,270,0.02545166015625,-0.00445556640625,-0.01287841796875,-91.3238525390625,32.69195556640625,-79.620361328125,-117.89453125,131060,147546,11073
0,0,8,280,0.02545166015625,-0.00445556640625,-0.01287841796875,-91.3238525390625,32.69195556640625,-79.620361328125,-109.89453125,131059,147569,11081
0,0,8,290,0.02801513671875,0.00128173828125,-0.0140380859375,-91.30859375,33.02001953125,-82.7789306640625,-109.89453125,131057,147572,11077
0,0,8,300,0.02801513671875,0.00128173828125,-0.0140380859375,-91.30859375,33.02001953125,-82.7789306640625,-109.89453125,131085,147592,11091
0,0,8,310,0.04681396484375,0.0103759765625,-0.01568603515625,-92.803955078125,34.43145751953125,-81.33697509765625,-109.89453125,131055,147582,11094
0,0,8,320,0.0374755859375,-0.01495361328125,-0.01873779296875,-92.803955078125,34.43145751953125,-75.6072998046875,-109.89453125,131083,147604,11108
0,0,8,330,0.0374755859375,-0.01495361328125,-0.01873779296875,-89.35546875,33.80584716796875,-75.6072998046875,-109.89453125,131075,147636,11093
0,0,8,340,0.01953125,-0.00384521484375,-0.01861572265625,-91.86553955078125,34.12628173828125,-80.74188232421875,-109.89453125,131088,147637,11104
0,0,8,350,0.01953125,-0.00384521484375,-0.01861572265625,-91.86553955078125,34.12628173828125,-80.74188232421875,-109.89453125,131070,147646,11095
0,0,8,360,0.023193359375,-0.00799560546875,-0.02294921875,-90.23284912109375,32.67669677734375,-78.10211181640625,-109.89453125,131078,147648,11100
0,0,8,370,0.023193359375,-0.00799560546875,-0.02294921875,-90.23284912109375,32.67669677734375,-78.10211181640625,-103.89453125,131094,147673,11096
0,0,8,380,0.0120849609375,-0.00909423828125,-0.02069091796875,-90.41595458984375,31.95953369140625,-82.6416015625,-103.89453125,131072,147670,11107
0,0,8,390,0.0120849609375,-0.00909423828125,-0.02069091796875,-90.41595458984375,31.95953369140625,-82.6416015625,-103.89453125,131075,147681,11105
0,0,8,400,0.01654052734375,-0.01824951171875,-0.0169677734375,-89.324951171875,31.524658203125,-80.54351806640625,-103.89453125,131087,147714,11112
0,0,8,410,0.01654052734375,-0.01824951171875,-0.0169677734375,-89.324951171875,31.524658203125,-80.54351806640625,-103.89453125,131105,147712,11112
0,0,8,420,0.01654052734375,-0.01739501953125,-0.01177978515625,-90.3167724609375,31.890869140625,-79.2388916015625,-101.89453125,131102,147727,11110
0,0,8,430,0.01654052734375,-0.01739501953125,-0.01177978515625,-90.3167724609375,31.890869140625,-79.2388916015625,-101.89453125,131096,147734,11117
0,0,8,440,0.0174560546875,-0.0130615234375,-0.01007080078125,-90.81268310546875,32.49359130859375,-78.36151123046875,-101.89453125,131113,147753,11118
0,0,8,450,0.0174560546875,-0.0130615234375,-0.0113525390625,-90.81268310546875,32.49359130859375,-78.36151123046875,-101.89453125,131109,147773,11120
0,0,8,460,0.0142822265625,-0.0076904296875,-0.0113525390625,-92.36907958984375,33.99658203125,-78.8726806640625,-101.89453125,131113,147790,11124
0,0,8,470,0.0146484375,-0.0032958984375,-0.01788330078125,-90.59906005859375,32.89031982421875,-80.7037353515625,-97.89453125,131102,147795,11111
0,0,8,480,0.0146484375,-0.0032958984375,-0.01788330078125,-90.59906005859375,32.89031982421875,-80.7037353515625,-97.89453125,131122,147796,11121
0,0,8,490,0.016357421875,-0.00177001953125,-0.01593017578125,-90.00396728515625,32.470703125,-80.69610595703125,-97.89453125,131121,147806,11117
0,0,8,500,0.016357421875,-0.00177001953125,-0.01593017578125,-90.00396728515625,32.470703125,-80.69610595703125,-97.89453125,131126,147815,11119
0,0,8,510,0.0142822265625,-0.00115966796875,-0.01080322265625,-90.50750732421875,32.16552734375,-82.43560791015625,-99.89453125,131112,147819,11128
0,0,8,520,0.0142822265625,-0.00115966796875,-0.01080322265625,-90.50750732421875,32.16552734375,-82.43560791015625,-99.89453125,131115,147819,11136
0,0,8,530,0.0189208984375,-0.007568359375,-0.00762939453125,-92.3919677734375,33.60748291015625,-82.75604248046875,-99.89453125,131122,147825,11140
0,0,8,540,0.0189208984375,-0.007568359375,-0.00762939453125,-92.3919677734375,33.60748291015625,-82.75604248046875,-99.89453125,131108,147825,11132
